time,ax,ay,az,aT
0.004,-0.5076,-0.2454,-0.249,0.616
0.006,-0.1173,0.2752,1.3013,1.335
0.008,0.0114,-0.6306,0.346,0.719
0.019,-0.4323,-0.7868,-0.3854,0.977
0.034,-0.6198,-0.4897,0.03,0.79
0.035,-0.5081,0.1925,-0.2141,0.584
0.053,0.5671,1.0772,-0.0153,1.217
0.071,-0.1315,-0.307,-0.0057,0.334
0.071,-0.1287,-0.4138,0.7425,0.86
0.072,-0.1306,-0.1256,0.1763,0.253
0.087,0.0803,0.6522,-0.4665,0.806
0.107,0.6027,0.7466,0.0124,0.96
0.109,0.3332,0.3649,-0.1815,0.526
0.121,0.3141,-0.4894,0.3608,0.684
0.123,-0.1952,-0.8518,0.1476,0.886
0.137,-0.5187,0.5486,0.0913,0.76
0.154,0.061,0.8596,0.4182,0.958
0.157,-0.4509,-0.1601,-0.4413,0.651
0.171,0.1772,-1.0941,1.1246,1.579
0.173,-0.5935,-0.7919,-1.4983,1.796
0.189,0.1053,0.7293,0.2375,0.774
0.204,0.3741,0.8752,-0.3814,1.025
0.207,0.5973,0.6869,0.5596,1.068
0.221,0.2272,-0.273,0.6015,0.699
0.222,0.0935,0.1907,-0.6112,0.647
0.238,0.2065,0.7678,0.3512,0.869
0.256,0.4977,0.8552,0.5907,1.152
0.257,0.6591,0.1742,0.4231,0.802
0.271,-0.3212,-0.6711,-0.306,0.805
0.273,-0.2826,-0.1678,-0.5874,0.673
0.289,-0.1079,0.1039,1.1233,1.133
0.309,-0.202,0.5038,-0.5754,0.791
0.312,-0.1877,-0.1201,-0.8052,0.835
0.314,-0.2173,-0.6856,-0.5203,0.888
0.322,0.5197,-0.5512,0.429,0.871
0.332,-0.429,0.4991,0.8169,1.049
0.341,0.2238,1.0116,0.4697,1.138
0.352,0.5579,0.4373,0.0329,0.71
0.361,0.0248,-0.6753,-0.3837,0.777
0.387,0.7533,-0.4721,-0.1287,0.898
0.389,0.122,0.4418,0.7295,0.862
0.392,0.5514,0.9236,-0.3503,1.131
0.401,0.3338,0.5943,-0.3048,0.747
0.412,0.1351,-0.4482,-0.6448,0.797
0.423,0.0809,-0.4723,-0.0367,0.481
0.432,0.2607,0.4175,-0.8831,1.011
0.442,0.4539,0.8903,0.1177,1.006
0.452,0.314,-0.5252,-0.1768,0.637
0.461,-0.6569,-0.7974,-0.1002,1.038
0.475,-0.6264,-0.5092,-0.4618,0.93
0.481,-0.0041,-0.3082,-0.4965,0.584
0.493,0.5986,0.3085,1.0262,1.227
0.5,-0.8009,-0.6252,-1.3477,1.688
0.513,-0.9996,-1.1165,-1.1813,1.908
0.524,-0.4123,-0.6544,-0.2417,0.81
0.533,-0.1801,-0.3991,1.196,1.274
0.557,0.8001,0.5936,0.1389,1.006
0.561,-0.5988,-0.7947,-0.6944,1.213
0.563,-0.8762,-1.0121,-0.5088,1.432
0.59,-0.3049,-0.4826,-0.2478,0.622
0.593,0.5985,0.112,0.5722,0.836
0.596,0.3083,0.1902,1.0355,1.097
0.604,0.2804,-0.0554,0.1041,0.304
0.623,-0.2702,-0.4749,-0.6369,0.839
0.626,0.189,0.1487,0.4214,0.485
0.632,0.4877,0.6874,0.893,1.228
0.646,0.4914,0.7825,-0.2311,0.952
0.652,0.1199,-0.314,0.0621,0.342
0.66,-0.0671,-0.8209,-0.3138,0.881
0.688,-0.676,-0.4657,-0.4311,0.927
0.689,-0.1745,0.2502,-0.3485,0.463
0.692,0.0427,0.0436,0.268,0.275
0.701,0.2053,-0.4369,-0.0481,0.485
0.725,-0.0762,-0.594,-0.4922,0.775
0.727,-0.8565,-0.7813,0.1423,1.168
0.732,0.0129,0.5912,-0.0887,0.598
0.742,-0.0064,0.6287,1.3119,1.455
0.752,1.1179,0.368,-0.2335,1.2
0.777,0.152,-0.6652,-0.4993,0.846
0.782,-0.6988,-1.2283,-0.6741,1.566
0.785,-0.365,0.5872,-0.4574,0.829
0.807,0.6997,1.0165,-0.6034,1.374
0.808,0.8678,0.3235,1.5262,1.785
0.812,-0.3046,0.0382,-2.0149,2.038
0.832,-1.07,-0.4014,-0.1032,1.147
0.833,-0.1338,0.6821,-0.1151,0.705
0.846,0.2026,0.9191,0.0118,0.941
0.855,-0.4029,-0.4885,-0.1641,0.654
0.861,-0.5377,-0.5942,-0.0994,0.808
0.873,-0.9131,-0.3125,-0.4561,1.067
0.881,0.0575,0.4172,0.103,0.434
0.894,0.8535,0.5997,0.6765,1.243
0.917,0.3453,-0.2136,0.1534,0.434
0.922,-0.031,-0.4356,0.3749,0.576
0.924,-0.164,-0.1146,-0.2141,0.293
0.932,-0.1194,0.8363,0.0516,0.846
0.942,0.3911,1.0429,0.2444,1.14
0.952,0.9841,0.6096,-0.0633,1.159
0.961,0.0283,-0.4443,0.8728,0.98
0.976,0.2176,-0.0256,-1.6699,1.684
1,-0.312,0.6294,-0.2872,0.759
1,-0.2292,0.9949,-0.286,1.06
1.001,0.6495,0.452,-0.4499,0.91
1.012,0.1705,-0.027,0.807,0.825
1.021,0.1831,0.402,-1.5166,1.58
1.031,-0.4553,0.2817,-0.6773,0.863
1.041,0.035,0.5728,-0.718,0.919
1.053,0.1613,-0.5409,-0.0547,0.567
1.061,-0.5283,-0.8056,-0.9417,1.347
1.075,-0.0923,-0.0408,-1.2961,1.3
1.081,-0.2791,0.4859,-0.6281,0.842
1.106,0.188,0.8034,-0.0163,0.825
1.11,0.3941,-0.533,-0.2557,0.71
1.114,-0.1563,-0.6437,-0.8362,1.067
1.125,-0.1382,-0.4162,-0.0797,0.446
1.132,0.5291,0.9093,0.9953,1.448
1.143,0.3593,0.9742,-0.2293,1.063
1.152,0.5938,-0.193,0.2986,0.692
1.162,1.0229,-0.4967,0.1466,1.147
1.18,0.0635,-0.3367,0.4074,0.532
1.183,-0.2966,0.6493,-1.5595,1.715
1.211,-0.281,0.4248,-0.4067,0.652
1.214,-0.056,0.562,-0.579,0.809
1.215,-0.4293,-0.4419,-1.168,1.32
1.224,-0.1658,-1.0276,1.0886,1.506
1.233,0.0209,0.2977,-1.3679,1.4
1.241,-0.0667,0.2422,0.9233,0.957
1.252,0.3423,0.1555,-1.1691,1.228
1.262,0.2009,-0.7119,0.6301,0.972
1.28,-0.1205,-0.24,-0.0762,0.279
1.284,0.162,0.5812,-0.7442,0.958
1.306,0.7159,0.6793,-0.0906,0.991
1.308,0.3665,-0.3876,-0.2558,0.592
1.312,-0.2106,-0.748,-0.8903,1.182
1.323,-0.5086,-0.2406,-0.5611,0.795
1.331,0.601,0.4122,0.4085,0.835
1.344,0.1775,0.9761,-0.2009,1.012
1.352,0.2829,-0.1986,0.1415,0.373
1.362,-0.353,-0.6107,-0.6139,0.935
1.389,0.2291,-0.475,0.1643,0.552
1.392,0.7974,0.7993,1.8186,2.141
1.413,0.0595,0.953,0.1055,0.961
1.414,-0.1653,-0.3594,-0.396,0.56
1.415,-1.1868,-0.9417,-0.5887,1.625
1.423,-0.363,-0.8151,-0.5133,1.029
1.432,0.3211,-0.3345,2.0533,2.105
1.442,0.3196,-0.3301,2.0532,2.104
1.452,0.3856,-0.0526,0.8309,0.918
1.462,-0.1391,-0.8294,-0.7409,1.121
1.482,-0.6252,-1.0141,0.7363,1.4
1.485,0.3056,0.3956,0.0167,0.5
1.513,-0.0073,-0.0403,0.286,0.289
1.516,-0.0305,-0.4952,0.0238,0.497
1.517,0.0274,-0.5078,0.1854,0.541
1.521,-0.3455,0.1611,0.0333,0.383
1.532,0.1451,0.7894,0.1207,0.812
1.541,0.592,0.396,0.6258,0.948
1.551,0.2523,0.1525,0.536,0.612
1.561,-1.0468,-0.466,-1.7708,2.109
1.579,-0.9402,-0.6954,-1.1327,1.628
1.582,-0.123,0.4547,-0.0014,0.471
1.606,0.7983,0.2209,0.6379,1.045
1.608,-0.3935,-0.5376,1.155,1.333
1.612,-0.3542,-0.6671,-0.6467,0.994
1.621,-0.7975,-0.3926,-0.2133,0.914
1.632,-0.4568,0.1503,0.6786,0.832
1.641,0.2489,0.073,1.689,1.709
1.652,0.1226,0.0504,-0.8465,0.857
1.661,-0.8622,-1.0761,-0.291,1.409
1.678,-0.4234,0.2813,-0.7506,0.907
1.681,-0.1231,0.6449,0.0886,0.662
1.708,0.4425,0.8278,0.9231,1.316
1.71,0.0294,0.0721,-0.0921,0.121
1.712,-0.9022,-1.0672,0.0851,1.4
1.721,-0.7031,-0.6602,-0.2524,0.997
1.733,0.7788,0.8592,0.7521,1.382
1.744,0.5118,1.0185,0.8,1.393
1.752,0.4464,0.3473,0.1644,0.589
1.761,0.0611,-0.8589,0.7546,1.145
1.779,-0.3084,-0.4269,-1.4266,1.521
1.782,-0.7537,0.0826,-0.6449,0.995
1.802,0.0409,0.7739,0.3105,0.835
1.803,0.4998,-0.1436,0.6002,0.794
1.811,0.2876,-0.4418,1.3471,1.447
1.82,-0.0793,-0.6428,-1.235,1.395
1.832,-0.5012,-0.3011,-0.883,1.059
1.841,0.3509,0.9383,-0.2713,1.038
1.852,1.1031,0.5291,-0.3288,1.267
1.861,0.2159,-0.1944,0.8982,0.944
1.886,0.0235,0.549,-1.04,1.176
1.91,-0.6764,0.1342,-0.3708,0.783
1.913,0.159,0.3518,-0.3061,0.493
1.915,0.5832,-0.339,0.2984,0.738
1.916,-0.5149,-0.708,-1.1178,1.42
1.923,-0.5793,-0.514,-0.9969,1.262
1.941,0.2913,0.474,-0.0547,0.559
1.941,0.264,0.7537,-0.0643,0.801
1.957,-0.1103,-0.0896,0.1057,0.177
1.974,-0.4339,-0.8291,-0.5515,1.086
1.975,0.295,-0.5887,0.5474,0.856
1.988,-0.1694,-0.2195,-0.8903,0.933
1.994,0.3676,-0.0667,-0.7742,0.86
2.001,0.4377,0.5345,-0.4367,0.817
2.042,-0.1635,-0.4347,0.989,1.093
2.043,0.6628,-0.1235,-0.3613,0.765
2.043,-0.0055,0.7494,0.2994,0.807
2.044,0.068,0.6405,0.0276,0.645
2.058,0.3079,0.1373,-0.4548,0.566
2.062,0.6429,-0.369,-0.2369,0.778
2.079,0.0984,-0.1574,0.783,0.805
2.083,0.7674,1.2334,0.3364,1.491
2.101,0.359,1.1865,0.2776,1.27
2.104,0.6883,0.7153,-0.5436,1.132
2.135,0.1899,-0.4381,-0.1664,0.506
2.139,-0.3411,-0.2466,-1.0679,1.148
2.141,0.0883,0.4609,-0.1796,0.503
2.143,0.4801,0.6988,-0.3112,0.903
2.153,0.1446,-0.338,-0.5171,0.634
2.161,-0.379,-0.7732,-0.4021,0.95
2.172,-0.5343,-0.5026,-0.6571,0.985
2.181,0.7023,0.2942,0.1737,0.781
2.207,-0.043,0.2427,0.3712,0.446
2.209,0.0599,-0.2283,0.455,0.513
2.212,-0.0897,-0.7047,-0.1926,0.736
2.221,-0.1996,-0.3041,1.7215,1.759
2.232,0.6848,0.315,0.492,0.9
2.244,-0.057,-0.2081,-0.6871,0.72
2.251,-0.0856,-0.0032,-0.1975,0.215
2.261,-0.3112,-0.1631,-0.984,1.045
2.282,0.477,0.2773,-0.5375,0.77
2.284,0.4886,0.7731,1.6196,1.86
2.311,0.3999,0.7813,-1.3755,1.632
2.312,-0.0749,-0.0392,0,0.085
2.312,-0.4576,-0.7783,-0.8044,1.209
2.32,-0.0913,0.1804,-0.2609,0.33
2.332,0.2239,0.5545,-0.0574,0.601
2.341,0.3508,0.6806,0.528,0.93
2.351,0.6742,0.2978,-0.1208,0.747
2.361,-0.6207,-0.9591,0.2768,1.175
2.376,-0.5149,-0.7129,-0.159,0.894
2.384,0.2297,0.0179,-0.3661,0.433
2.419,0.2224,0.627,-0.1818,0.69
2.421,0.2961,0.2446,0.1019,0.397
2.422,-1.4027,-0.8495,-0.8509,1.847
2.423,-0.8669,-0.4578,-0.6067,1.153
2.441,0.4415,-0.222,1.0644,1.174
2.442,0.623,0.5376,1.36,1.59
2.452,0.2468,0.3631,-0.6403,0.776
2.461,-0.6957,-0.9968,-0.4656,1.302
2.471,-1.1223,-0.3461,-0.5626,1.302
2.487,-0.0967,0.3263,-0.0107,0.34
2.51,0.5611,0.7765,1.2319,1.561
2.511,0.1777,-0.2352,-0.7936,0.847
2.513,-0.6384,-1.2812,-0.0969,1.435
2.521,-0.5366,-0.5138,-0.7781,1.076
2.531,-0.0276,0.0791,0.146,0.168
2.542,0.0185,0.1831,0.0933,0.206
2.551,-0.5042,-0.6053,-0.8344,1.148
2.562,-0.8303,-0.9126,-0.6417,1.391
2.572,-0.7691,-0.9327,-0.0312,1.209
2.583,0.102,0.329,0.0346,0.346
2.621,0.6127,1.0862,0.1711,1.259
2.622,0.8052,0.4598,-0.036,0.928
2.623,0.0783,-0.0829,0.4536,0.468
2.624,-0.2142,0.1096,-1.3385,1.36
2.632,-0.6103,-0.0452,-0.5089,0.796
2.644,1.2194,0.5183,0.3112,1.361
2.652,0.0829,-0.177,0.0681,0.207
2.662,-0.5033,0.0423,-1.196,1.298
2.677,-0.8422,-0.3474,-0.8668,1.258
2.685,-0.971,0.0368,-0.0144,0.972
2.714,-0.0008,0.2634,0.1269,0.292
2.715,-0.0274,-0.5808,1.8963,1.983
2.716,-0.2579,-0.4404,-1.9883,2.053
2.721,-0.8242,-1.0502,0.5053,1.427
2.733,-0.4378,0.4783,-0.4595,0.795
2.744,0.6173,0.8465,0.806,1.322
2.753,-0.1458,-0.3746,0.0195,0.402
2.764,0.0803,-0.3697,-0.6017,0.711
2.772,-0.225,-0.9143,-0.4461,1.042
2.781,0.2479,0.4686,0.0938,0.538
2.813,0.7995,0.9643,0.1561,1.262
2.816,0.2008,0.0576,0.1082,0.235
2.818,-0.4339,-0.7767,0.4936,1.017
2.821,-0.4352,0.3638,-0.5443,0.786
2.839,-0.1195,0.8726,0.0591,0.883
2.845,0.1643,1.0102,-0.1779,1.039
2.852,1.2581,0.3008,-0.2844,1.324
2.861,0.6967,-0.4214,0.8157,1.153
2.872,-0.3967,0.2881,-0.6735,0.833
2.881,0.0095,0.5453,-0.2785,0.612
2.908,0.2685,0.8717,0.0915,0.917
2.91,0.6544,0.4107,0.0113,0.773
2.912,0.263,-0.921,1.3425,1.649
2.921,-0.3549,0.0133,-1.7437,1.779
2.932,-0.2322,-0.3997,0.2327,0.518
2.943,-0.23,0.0139,-0.1791,0.292
2.952,-0.3605,-0.5666,0.4542,0.811
2.962,-0.3237,-0.9611,-0.6831,1.223
2.972,-0.3093,-0.5068,-0.8734,1.056
2.993,0.3467,0.6086,-0.0953,0.707
2.997,0.5705,1.2064,0.4182,1.398
3.008,0.5668,0.5636,0.4074,0.897
3.012,-0.4555,-0.6714,-0.1875,0.833
3.021,-0.013,-0.2696,-0.2845,0.392
3.062,0.1351,0.7134,1.0395,1.268
3.062,-0.1386,0.8938,-0.8363,1.232
3.063,-0.0971,0.0437,-0.525,0.536
3.064,-0.3412,-0.4894,-0.7476,0.957
3.072,0.3971,-0.3124,0.7153,0.876
3.082,-0.2254,-0.1291,1.2934,1.319
3.1,0.0182,0.8211,0.3645,0.899
3.102,0.2187,0.1487,-0.2891,0.392
3.132,-0.1944,-0.6986,0.3945,0.826
3.134,-0.0563,-0.7186,1.4659,1.634
3.135,-0.3454,0.0319,-0.4196,0.544
3.142,0.2261,0.3375,0.5429,0.678
3.152,0.243,-0.3067,-0.8529,0.938
3.163,-0.258,-0.5638,-0.0102,0.62
3.172,0.1417,-0.143,0.3896,0.439
3.181,0.4634,0.4886,-0.6327,0.924
3.198,0.4278,0.8266,0.4327,1.026
3.201,0.4133,-0.2356,-0.0953,0.485
3.228,-0.4183,-0.3318,0.0053,0.534
3.23,-0.5779,-0.518,-0.6376,1.004
3.232,-0.1392,0.1139,-0.3228,0.37
3.241,0.0937,-0.0519,0.933,0.939
3.253,-0.5153,-0.4438,-1.0243,1.229
3.263,-0.8055,-1.2017,-1.2362,1.903
3.272,-0.3465,-0.95,-0.3755,1.079
3.285,-0.4245,-0.618,0.6755,1.009
3.326,0.1402,-0.3588,0.2769,0.474
3.328,-0.0728,-0.5182,-0.8664,1.012
3.329,-0.2814,-0.9792,-0.7813,1.284
3.33,-0.4195,-0.3284,-0.4976,0.729
3.332,0.4596,0.3615,-0.3203,0.667
3.341,0.8925,1.225,1.127,1.889
3.352,0.5469,0.2049,-0.7011,0.912
3.363,-0.3781,-0.6848,-1.1045,1.353
3.372,0.0322,-0.4914,-0.5898,0.768
3.381,0.6863,0.8171,0.5619,1.206
3.399,0.1148,0.7506,-0.2319,0.794
3.407,0.1038,-0.1307,0.5043,0.531
3.413,0.5739,-0.3444,0.4037,0.782
3.435,-0.3468,-0.4862,0.3474,0.691
3.438,0.3334,0.8724,0.2683,0.972
3.442,0.6978,0.4484,-0.0334,0.83
3.453,0.4744,-0.2312,0.4178,0.673
3.463,-0.2634,-0.5657,-1.3743,1.509
3.472,-1.2485,-1.0595,-0.6178,1.75
3.482,-0.3137,0.4551,-0.6393,0.845
3.501,0.2911,0.6336,0.7817,1.047
3.503,0.1662,-0.0486,0.3303,0.373
3.538,0.2694,-0.4214,0.1184,0.514
3.54,-0.7123,-0.7095,-0.3353,1.06
3.542,0.2273,0.6575,0.043,0.697
3.544,0.84,0.0982,0.5913,1.032
3.552,0.1932,0.3703,0.723,0.835
3.563,0.2393,-0.0722,-1.0213,1.051
3.572,-0.521,0.0132,-0.7137,0.884
3.581,-0.429,0.1196,-0.3928,0.594
3.6,0.1126,0.3992,0.602,0.731
3.608,-0.065,0.0322,-0.2587,0.269
3.639,-0.6241,-0.7755,-0.5951,1.16
3.641,-0.7238,-0.5242,-1.0176,1.354
3.643,0.1419,0.6535,-0.4322,0.796
3.644,0.6872,0.914,0.4226,1.219
3.653,0.1469,-0.0121,0.2718,0.309
3.663,-0.0172,-0.6294,-0.3639,0.727
3.672,-0.4206,-0.6689,-0.2921,0.842
3.682,0.0222,0.6785,0.3687,0.773
3.692,0.3868,0.8997,0.2838,1.02
3.702,0.1111,0.0025,0.8548,0.862
3.712,0.7282,-0.2582,0.1413,0.785
3.742,-0.2873,-0.7467,-1.1337,1.388
3.744,-0.6966,0.182,-0.8212,1.092
3.746,-0.1569,1.1635,-0.0131,1.174
3.752,0.4143,0.3026,-0.4333,0.672
3.763,0.8346,0.5596,1.0918,1.484
3.773,-0.2581,0.3131,-1.5694,1.621
3.783,-0.697,-0.2128,-0.1425,0.743
3.792,-0.4357,0.5828,-0.7278,1.029
3.805,-0.4318,0.5772,-0.7277,1.024
3.846,-0.2618,-0.3843,-1.0186,1.12
3.847,-0.4155,-0.1388,-1.3094,1.381
3.847,-0.5306,0.3499,-0.742,0.977
3.848,0.025,0.7563,-0.0045,0.757
3.852,0.231,-0.2799,0.1932,0.411
3.862,-0.1748,-0.633,-0.3096,0.726
3.872,0.0172,-0.5336,-0.1384,0.551
3.882,0.2783,0.4843,-0.1013,0.568
3.903,0.2355,0.2328,0.2734,0.429
3.907,0.3849,0.5256,0.2363,0.693
3.95,0.8061,-0.1661,0.192,0.845
3.952,0.1629,-0.0897,0.4685,0.504
3.953,0.4009,0.9529,-0.5862,1.188
3.954,0.3695,0.467,-0.1553,0.615
3.956,0.1798,0.1075,-0.3277,0.389
3.963,-0.0059,-0.544,-0.8341,0.996
3.972,0.2248,-0.0913,0.7077,0.748
3.993,0.1612,0.6242,-1.9164,2.022
4.002,0.3978,0.5864,0.1941,0.735
4.003,0.2537,-0.3359,-1.0976,1.176
4.013,0.1749,-0.962,0.3018,1.023
4.022,-0.5245,-0.781,-0.5087,1.07
4.066,0.2611,0.6213,-0.249,0.718
4.066,0.0556,0.0667,-0.8153,0.82
4.067,0.2154,-0.334,0.2346,0.462
4.068,-0.2049,-0.747,-0.3532,0.851
4.072,-0.3695,-0.4231,-0.6178,0.835
4.082,0.8423,0.7121,-0.0397,1.104
4.092,0.5623,1.0041,0.5935,1.295
4.107,0.3173,0.3589,-0.8358,0.963
4.134,-0.746,-0.6407,-0.4647,1.088
4.135,0.4731,-0.8361,-0.6227,1.145
4.136,-0.2893,0.143,0.7419,0.809
4.141,0.13,0.8564,-0.794,1.175
4.152,-0.0294,-0.0255,-0.1954,0.199
4.162,0.0651,-0.0387,0.0524,0.092
4.172,-0.7581,-0.2679,0.0799,0.808
4.184,-0.2346,-0.5413,1.6709,1.772
4.194,-0.2299,-0.1611,-1.1016,1.137
4.206,0.0229,-0.6313,1.6948,1.809
4.267,0.4261,-0.5174,-1.42,1.57
4.27,-0.0966,-0.3502,1.0172,1.08
4.273,-0.0441,0.2713,0.1373,0.307
4.275,0.5785,0.3733,1.1596,1.349
4.278,0.7021,0.7724,0.4784,1.148
4.281,0.3207,-0.2346,-0.1944,0.442
4.283,0.1999,0.1292,-0.4458,0.505
4.284,0.2453,0.633,-0.1585,0.697
4.294,0.2252,0.1815,0.7369,0.792
4.306,-0.3237,0.3726,-0.6074,0.783
4.356,-0.8432,-1.1057,-0.7307,1.571
4.358,-0.7588,-0.8718,-0.9295,1.483
4.359,-0.1626,0.6847,-0.034,0.705
4.36,1.0302,0.4578,0.9261,1.459
4.362,-0.4331,-0.0816,0.7333,0.856
4.363,-0.8068,-1.063,-1.1198,1.742
4.372,-0.9099,-0.7133,-0.7199,1.362
4.387,-0.5149,-0.0971,0.3779,0.646
4.392,0.2814,-0.0292,2.0766,2.096
4.422,-0.2241,0.0214,-1.2382,1.258
4.423,-0.5105,-1.0872,-0.4169,1.271
4.423,-0.4501,-0.9073,-0.3797,1.082
4.432,-0.1246,0.3521,0.7492,0.837
4.441,0.6856,0.5539,0.4847,1.006
4.452,-0.4681,-0.5554,-0.3365,0.8
4.466,-0.9739,-0.8427,0.055,1.289
4.474,-0.3198,0.2134,-0.0873,0.394
4.484,0.1079,0.6564,0.2372,0.706
4.492,0.2385,0.8595,0.4216,0.987
4.507,0.12,0.5012,0.1643,0.541
4.554,0.4425,-0.0811,0.9161,1.021
4.556,-0.8934,-0.5844,-2.0431,2.305
4.557,-0.8345,-0.096,-1.1812,1.449
4.558,0.2349,0.5197,-0.1037,0.58
4.559,0.6396,0.2369,0.629,0.928
4.564,-0.3677,-0.502,0.7164,0.949
4.572,-0.8534,-0.2464,-0.5813,1.062
4.583,0.1191,-0.3322,-0.6039,0.699
4.592,0.2048,0.5395,0.7142,0.918
4.602,0.2493,-0.5175,1.0459,1.193
4.635,-0.2869,-0.5627,-0.581,0.858
4.635,-0.1222,-0.1442,-0.4853,0.521
4.636,-0.5018,-0.0196,-0.6444,0.817
4.64,0.4543,1.0812,-0.0266,1.173
4.652,0.1241,-0.6111,0.3098,0.696
4.661,-0.0323,-0.5982,-1.098,1.251
4.672,-0.7153,-0.7868,-0.3666,1.125
4.689,0.0002,0.499,-0.0289,0.5
4.693,0.6108,0.882,0.5086,1.187
4.742,0.1723,0.1301,0.3446,0.407
4.747,-0.4826,-0.6134,-0.2887,0.832
4.749,0.0293,-0.6095,0.4344,0.749
4.749,-0.0646,0.6342,-1.0679,1.244
4.751,0.0915,1.1706,-0.7806,1.41
4.752,-0.0433,0.2082,-0.6837,0.716
4.761,-0.0654,-0.7879,0.2549,0.831
4.772,-0.0147,-0.5583,-0.1294,0.573
4.808,-0.1974,0.4758,-0.5448,0.75
4.808,0.4143,0.6094,-0.4106,0.844
4.809,0.7896,0.8475,0.0407,1.159
4.816,0.5136,-0.0221,-0.6633,0.839
4.821,0.0136,0.2224,0.669,0.705
4.834,-0.1374,0.884,-0.8539,1.237
4.841,0.043,0.99,-0.4492,1.088
4.853,0.7766,0.5468,-0.5115,1.079
4.862,0.5823,-0.1851,0.0176,0.611
4.872,0.1574,0.1911,-0.7439,0.784
4.887,0.5054,0.8248,0.1419,0.978
4.892,0.9967,1.0467,0.3107,1.478
4.936,0.3698,-0.1535,-0.1958,0.446
4.938,0.1318,-0.4925,-0.2772,0.58
4.94,-0.5904,-0.6163,-0.7992,1.169
4.942,0.1904,-0.2123,0.8672,0.913
4.943,0.1382,0.3704,-0.7478,0.846
4.952,-0.4945,-0.262,-0.0535,0.562
4.961,-0.7627,-0.7161,-0.8675,1.359
4.972,-0.4557,-0.1946,0.6337,0.804
4.989,-0.4551,-0.1932,0.6337,0.804
4.997,0.1607,0.2253,0.4684,0.544
5.001,0.2413,0.9671,-0.0415,0.998
5.045,0.1015,-0.3623,-0.9692,1.04
5.046,0.3842,-0.4803,0.3811,0.724
5.046,-0.2309,0.2252,0.3763,0.496
5.047,0.3858,0.9309,-0.239,1.036
5.052,0.2672,0.3633,-0.0858,0.459
5.062,-0.0374,-0.6913,-0.0199,0.693
5.074,-0.3946,-0.7736,0.2004,0.891
5.096,-0.0189,0.3151,-0.5945,0.673
5.099,0.5189,0.7104,0.2267,0.908
5.102,0.1885,-0.1937,-0.1312,0.3
5.112,-0.8058,-0.7117,-0.5059,1.188
5.124,-0.6438,-1.004,-0.4114,1.262
5.133,-0.1845,-0.2794,-0.4258,0.542
5.141,0.7011,0.8873,-0.2331,1.155
5.153,0.4305,0.4077,0.6276,0.863
5.161,-0.3042,-0.8975,-0.3289,1.003
5.172,-0.6719,-0.6287,-0.5875,1.092
5.188,0.3144,-0.4687,1.1495,1.281
5.193,0.3462,0.0849,-0.4882,0.605
5.235,0.1829,-0.2395,-1.2927,1.327
5.238,-0.4847,-0.9265,-0.4871,1.153
5.239,-0.6297,-0.2938,-0.6033,0.92
5.24,-0.7487,-0.3052,0.3113,0.866
5.241,0.1555,0.6057,1.0654,1.235
5.252,0.0978,-0.1361,-1.0894,1.102
5.261,-0.5742,-1.0479,-0.1915,1.21
5.272,-0.5214,-0.4973,-0.626,0.954
5.291,-0.0188,0.6811,0.1294,0.694
5.295,-0.0145,0.6844,0.1294,0.697
5.329,0.3088,0.3795,0.4371,0.656
5.333,-0.5713,-0.6048,-0.1638,0.848
5.334,-0.4268,-0.841,0.2456,0.975
5.337,0.1219,0.4701,0.0697,0.491
5.341,0.6168,0.5075,0.6324,1.019
5.354,0.3119,0.0565,0.2337,0.394
5.361,-0.1995,-0.293,-0.0727,0.362
5.374,-0.5991,-0.011,-0.5348,0.803
5.388,-0.1652,1.1534,-0.4582,1.252
5.392,0.8774,0.5698,-0.2558,1.077
5.44,-0.0513,-0.2536,0.5882,0.643
5.442,0.0268,-0.2647,-1.8827,1.901
5.443,-0.8447,-0.9829,-1.3679,1.884
5.444,-0.373,0.3487,-0.4198,0.661
5.444,0.4845,0.7638,-0.9237,1.293
5.455,0.7189,0.0673,1.4609,1.63
5.461,-0.3775,-0.1796,-2.3363,2.373
5.472,-0.6763,-0.2564,-0.5466,0.907
5.488,-0.5389,0.1255,-1.005,1.147
5.492,0.7403,0.319,-0.161,0.822
5.526,-0.1876,-0.3941,-0.1191,0.452
5.527,-0.3029,-0.4319,-0.8565,1.006
5.528,-0.3351,-0.5214,-0.5811,0.85
5.534,0.0436,0.2828,0.0917,0.3
5.541,0.736,0.7927,0.039,1.082
5.555,0.2358,-0.1543,0.1264,0.309
5.562,0.0026,-0.2513,0.2246,0.337
5.573,0.6866,0.5665,0.039,0.891
5.597,0.2203,0.899,-0.6063,1.106
5.602,0.2189,0.894,-0.6063,1.102
5.603,0.9493,0.2115,-0.3202,1.024
5.639,-0.2426,-0.4044,0.0568,0.475
5.642,-0.2084,0.3591,-1.7174,1.767
5.643,-0.1759,0.3241,-0.8387,0.916
5.644,-0.1634,0.7437,-0.0833,0.766
5.653,0.4357,0.4942,0.088,0.665
5.661,-0.1905,-1.4264,1.4539,2.046
5.672,-0.6546,-0.586,-1.5556,1.787
5.688,0.2136,0.1051,1.0217,1.049
5.692,0.1013,0.6273,-0.2184,0.672
5.723,0.4439,0.0345,1.6491,1.708
5.725,-0.6664,-0.7112,-0.2687,1.011
5.727,0.27,0.3177,-0.3154,0.523
5.734,0.1698,0.9707,-0.319,1.036
5.741,-0.1028,0.6936,-0.3321,0.776
5.753,0.184,-0.2299,-0.2734,0.402
5.761,-0.56,-0.6151,-0.2542,0.87
5.772,0.0317,-0.4382,0.4652,0.64
5.796,-0.3938,0.4866,-0.0351,0.627
5.798,0.1703,0.9707,-0.2314,1.012
5.802,0.4061,-0.2291,-0.053,0.469
5.828,-0.4238,-0.2933,-0.5031,0.72
5.829,0.6076,-0.5131,0.791,1.122
5.836,-0.413,0.1326,0.3505,0.558
5.841,-0.0892,0.6037,-0.1415,0.626
5.852,0.3877,0.0259,-0.2779,0.478
5.861,-0.2833,-0.6359,-0.1977,0.724
5.872,-0.0197,-0.9685,1.1526,1.506
5.896,-0.0686,0.3099,-1.8163,1.844
5.9,0.311,0.2604,0.141,0.429
5.902,0.3418,0.0823,-1.0968,1.152
5.945,-0.2872,-0.8562,-0.0901,0.908
5.948,-0.4079,-0.6807,0.0188,0.794
5.949,0.3304,0.1626,-0.1764,0.408
5.95,0.1372,0.4002,0.6651,0.788
5.952,0.7551,0.2506,0.1564,0.811
5.961,-0.1481,-0.5478,0.2353,0.614
5.972,-0.3743,-0.4807,-0.5213,0.802
5.983,-0.3016,-0.4237,-0.5716,0.773
5.992,0.3814,0.5227,0.8182,1.043
6.025,-0.6223,-0.7354,-1.8657,2.1
6.026,-0.865,-1.1038,-0.7501,1.59
6.026,-0.6287,-0.5272,-0.1767,0.839
6.034,0.4471,0.1817,1.206,1.299
6.041,-0.1766,-0.1433,0.5584,0.603
6.054,-0.3604,-0.2518,-0.3119,0.539
6.061,-0.0226,-0.522,-0.4519,0.691
6.072,-0.1252,-0.3449,-0.0472,0.37
6.082,0.7403,0.2731,1.715,1.888
6.107,-0.0372,0.0457,0.2365,0.244
6.109,0.0793,-0.1788,0.2676,0.331
6.112,-0.0018,-0.6635,-0.6458,0.926
6.154,-0.0784,-0.4304,0.1323,0.457
6.156,0.5981,0.56,0.8338,1.169
6.158,0.3626,0.4886,0.0018,0.608
6.159,-0.0032,0.4585,0.6637,0.807
6.162,0.3043,-0.3289,0.1465,0.471
6.172,-0.3105,-0.0047,-0.0426,0.313
6.192,0.2546,0.7072,-0.1133,0.76
6.196,0.6445,0.3339,0.1297,0.737
6.233,0.0873,-0.0846,0.5295,0.543
6.233,-0.5839,-0.5882,-1.423,1.647
6.234,-0.6682,-0.6192,-1.4039,1.674
6.234,-0.6549,-0.3109,0.1559,0.742
6.241,0.2214,0.3361,0.411,0.575
6.252,0.4507,-0.1558,0.241,0.534
6.26,-0.7043,-0.6165,-0.6999,1.169
6.272,-0.7182,-0.7389,-0.8866,1.359
6.281,-0.0559,0.533,-0.2137,0.577
6.293,1.3589,0.3745,0.5657,1.519
6.341,0.658,0.294,1.3114,1.496
6.343,-0.4281,-0.5969,0.0687,0.738
6.345,-0.2506,0.0932,-0.7046,0.754
6.347,0.772,0.5994,0.5452,1.119
6.35,0.6722,1.1099,1.1569,1.738
6.352,0.1685,0.3839,-0.008,0.419
6.361,-0.7037,-0.8422,-0.263,1.129
6.372,-0.6332,-0.5512,-0.05,0.841
6.381,-0.1503,0.2675,-0.4007,0.505
6.392,0.5887,0.887,0.1224,1.072
6.424,-0.1316,-0.244,-0.2858,0.398
6.424,0.1316,-0.8186,0.466,0.951
6.424,-0.5068,-0.5617,-1.5032,1.683
6.431,-0.5967,0.1867,-0.4246,0.756
6.441,-0.0324,0.7402,-0.5036,0.896
6.454,-0.1367,-0.0041,0.4422,0.463
6.461,0.5969,-0.3747,0.0891,0.71
6.473,-0.0746,-0.5799,-0.8687,1.047
6.482,-0.3373,0.1412,-1.1895,1.244
6.497,0.0334,0.7564,-0.294,0.812
6.553,1.3315,0.2743,0.3561,1.405
6.555,0.3191,-0.1646,0.9306,0.997
6.556,-0.0918,0.2898,-1.3021,1.337
6.557,-0.262,0.3418,-0.2966,0.523
6.558,0.5154,0.7689,0.223,0.952
6.559,0.4171,-0.1445,0.1116,0.455
6.561,-0.5397,-0.4365,-0.5648,0.895
6.573,-0.5933,-0.7101,-1.319,1.611
6.581,-0.4599,-0.1524,-0.7994,0.935
6.598,0.5091,0.7482,-0.0476,0.906
6.633,0.1059,-0.2679,0.2517,0.383
6.635,-0.5828,-0.6929,-0.2008,0.927
6.636,-0.0342,-0.0171,-0.3026,0.305
6.637,0.2892,0.5985,0.6288,0.915
6.641,0.1134,0.9693,0.0362,0.977
6.653,0.2582,0.6775,0.156,0.742
6.662,0.8868,-0.049,0.4936,1.016
6.673,0.3127,-0.0369,0.0578,0.32
6.683,0.0077,0.3653,-0.3888,0.534
6.695,0.2225,0.5882,0.6264,0.888
6.749,0.3656,0.5531,-0.1565,0.681
6.752,-0.1503,-0.5091,-0.2368,0.581
6.753,0.3631,-0.3823,1.1315,1.248
6.753,0.1192,0.7688,-1.276,1.494
6.754,0.1332,0.6685,0.0648,0.685
6.756,-0.1028,0.2198,-0.8558,0.89
6.761,-0.0334,-0.5581,-0.9192,1.076
6.773,-0.5039,-0.8206,-0.6007,1.135
6.781,-0.0298,0.7352,-0.6582,0.987
6.792,0.4028,0.9471,-0.2188,1.052
6.834,0.6272,0.1891,0.2265,0.693
6.836,-0.2364,-1.0198,-0.293,1.087
6.837,-0.2828,-0.3006,-0.6904,0.804
6.838,0.0716,-0.0311,0.1667,0.184
6.841,0.3933,0.5596,0.4887,0.841
6.853,0.3213,-0.241,0.1547,0.43
6.861,0.2403,-0.4375,0.0421,0.501
6.874,0.4736,-0.5801,1.3074,1.507
6.882,0.5013,0.3931,0.6848,0.935
6.893,0.445,1.1588,-1.1756,1.71
6.911,0.0838,0.462,-0.6453,0.798
6.914,-0.5273,-0.4446,-0.6524,0.949
6.968,-0.2833,-0.1869,-1.0738,1.126
6.97,0.6544,0.4095,1.9441,2.092
6.972,-0.1766,0.6542,-1.257,1.428
6.973,-0.4318,-0.7988,-0.2609,0.945
6.974,-0.0484,-0.7239,-1.2653,1.459
6.976,0.0753,-0.8515,0.7339,1.127
6.993,-0.1084,0.2054,0.1209,0.262
6.995,0.0812,0.0608,0.2717,0.29
7.004,0.4703,0.4363,0.3555,0.733
7.012,-0.6131,-0.9146,0.0682,1.103
7.048,-0.6201,-0.8289,-0.4778,1.14
7.049,0.0307,0.1171,-0.497,0.511
7.049,0.5327,0.6918,0.1219,0.882
7.054,0.2298,0.6338,-0.2109,0.706
7.061,-0.1395,-0.2899,-0.9938,1.045
7.072,-0.7751,-0.6538,-0.7963,1.289
7.081,0.1453,-0.6483,0.1566,0.683
7.093,0.4198,0.694,0.7276,1.09
7.136,-0.1728,-0.0715,-0.5353,0.567
7.139,-0.5148,-0.8889,-1.1386,1.534
7.141,-0.992,-0.5679,-0.3079,1.184
7.143,-0.6164,-0.3816,-0.1127,0.734
7.143,0.1008,-0.6139,2.0122,2.106
7.155,-0.6326,-0.5927,-1.3278,1.586
7.161,-0.1742,-0.8381,0.4332,0.959
7.174,-0.6177,-0.5422,-0.5304,0.978
7.181,-0.1269,0.2707,1.4222,1.453
7.195,0.3545,0.2093,0.4898,0.64
7.201,-0.1107,-0.2737,0.4898,0.572
7.251,-0.0463,-0.4497,0.4982,0.673
7.251,-0.3616,-0.4682,-0.1517,0.611
7.252,0.1197,0.4858,-0.1445,0.521
7.253,0.9615,1.0366,0.496,1.498
7.253,-0.1237,-0.3233,0.7498,0.826
7.261,-0.3072,0.2319,-0.3552,0.524
7.272,-0.4374,-0.0999,-1.4505,1.518
7.281,-0.6898,-0.3717,-1.4206,1.622
7.295,0.2337,0.8086,-0.2222,0.871
7.302,0.8968,-0.1431,0.7618,1.185
7.334,-0.3482,-0.5005,-0.1971,0.641
7.336,-0.9941,-0.7322,-0.8112,1.477
7.338,-0.4072,0.4128,0.0066,0.58
7.341,0.0407,0.7352,0.0115,0.736
7.355,0.1615,-0.6849,1.0518,1.265
7.361,-0.5353,-0.4257,-1.6094,1.749
7.373,-0.886,-0.8506,-0.3882,1.288
7.381,-0.4809,0.0828,-0.5951,0.77
7.396,0.2464,1.1554,0.1629,1.193
7.402,0.6728,0.4208,0.6945,1.054
7.466,-0.5417,-0.3065,-0.3326,0.706
7.468,-0.5345,-0.5542,-0.2871,0.822
7.469,0.3999,0.63,0.3571,0.827
7.471,0.8517,1.0465,0.7666,1.552
7.473,0.6029,0.4167,0.4936,0.884
7.474,-0.3751,-0.4168,0.205,0.597
7.476,-0.1055,0.0192,0.9196,0.926
7.481,-0.294,0.3922,-1.0017,1.115
7.493,0.3229,0.8491,-0.2428,0.94
7.501,0.0708,0.3976,-0.5301,0.666
7.534,0.4243,-0.1409,0.5389,0.7
7.536,-0.4251,-0.167,0.054,0.46
7.537,-0.2949,0.7603,-0.1783,0.835
7.543,0.031,0.5458,0.1355,0.563
7.553,0.359,0.6604,0.2038,0.779
7.561,1.6296,0.1593,-0.0644,1.639
7.573,-0.0559,-0.0707,0.3125,0.325
7.581,0.7065,0.5102,-0.5771,1.045
7.593,0.0607,0.9219,0.0345,0.924
7.602,0.5316,0.6707,-0.3749,0.934
7.633,0.1449,-0.5721,-0.1319,0.605
7.636,0.0492,-0.0189,-1.4057,1.407
7.637,-0.0169,0.2922,-0.6109,0.677
7.642,0.1551,0.5481,-0.0411,0.571
7.652,0.1197,-0.0868,-0.1716,0.226
7.661,-0.7261,-0.6823,-0.6001,1.163
7.673,0.0447,-0.1824,-0.0794,0.204
7.681,0.2767,0.155,1.2482,1.288
7.696,0.0688,0.8907,-0.423,0.988
7.702,0.3131,0.6993,-0.229,0.8
7.757,-0.1347,-0.6968,0.026,0.71
7.759,0.0044,-0.3584,0.6222,0.718
7.76,0.6192,0.4119,0.3169,0.808
7.761,-0.0506,0.6809,0.3863,0.785
7.762,0.3187,-0.2216,-0.1906,0.432
7.764,0.4083,-0.3764,-0.6036,0.82
7.772,0.7081,-0.5706,0.5791,1.078
7.782,0.2509,0.5631,0.1683,0.639
7.793,0.3602,1.1665,0.2233,1.241
7.801,0.2408,0.7443,0.0115,0.782
7.816,0.7757,-0.288,0.1995,0.851
7.878,-0.0747,-0.2001,0.2749,0.348
7.88,0.1682,0.4962,-0.939,1.075
7.881,0.5685,0.5647,0.3874,0.89
7.882,0.476,-0.2433,0.4557,0.702
7.883,-0.4323,-0.8856,-0.1871,1.003
7.884,-0.5429,-0.9772,-0.5223,1.234
7.885,-0.5938,-0.6276,-0.5511,1.025
7.893,-0.1595,-0.4929,0.507,0.725
7.902,-0.3328,-0.6466,-0.7393,1.037
7.916,-0.4161,-0.927,-0.0906,1.02
7.954,-0.6636,-0.433,-0.3158,0.853
7.957,-0.2007,-0.3398,1.694,1.739
7.958,1.1826,0.2633,0.7542,1.427
7.958,0.2228,-0.3509,-0.0492,0.419
7.961,-0.9825,-0.5016,-0.2707,1.136
7.973,-0.1438,-0.3139,-1.414,1.456
7.984,1.0163,0.5946,-0.1451,1.186
7.992,0.5722,0.777,1.7055,1.96
8.001,0.1529,0.2416,-0.6444,0.705
8.012,-0.5185,-0.7429,-0.3655,0.977
8.059,-0.408,-0.6591,-0.1057,0.782
8.059,0.346,0.7341,0.2282,0.843
8.06,0.1824,0.5842,0.1887,0.64
8.061,0.2161,0.1417,0.0487,0.263
8.061,-0.153,-0.4283,-0.2314,0.51
8.074,-0.558,-0.2605,-0.0327,0.617
8.081,0.1547,0.3949,0.2546,0.495
8.1,0.1356,0.2056,0.1157,0.272
8.104,0.1464,-0.4295,-0.3092,0.549
8.148,0.2095,-0.4317,0.3073,0.57
8.15,-1.1273,-0.7631,-0.3021,1.394
8.153,-0.2145,0.4455,-0.6122,0.787
8.155,0.5891,0.4005,0.6735,0.98
8.157,0.2243,-0.1285,0.5874,0.642
8.163,-0.056,-0.1066,-1.5363,1.541
8.175,-0.9963,-0.5911,-0.9174,1.478
8.181,-0.4808,0.4148,-0.4134,0.758
8.195,0.1463,0.8572,-0.1823,0.888
8.202,0.2781,0.1648,1.4362,1.472
8.216,0.1863,-0.2015,-1.3566,1.384
8.273,-0.8126,-0.6266,0.1985,1.045
8.274,-0.4728,0.2173,-0.3474,0.626
8.274,0.3,0.6724,0.3434,0.812
8.275,-0.3113,-0.4272,0.1723,0.556
8.275,-0.747,-0.4781,-1.0475,1.373
8.276,-0.6303,-0.2166,-0.8571,1.086
8.281,-0.0747,0.2192,-0.3818,0.447
8.292,0.5751,0.6673,-0.1303,0.891
8.301,0.6496,0.8707,0.6814,1.282
8.314,-0.1094,-0.3713,0.4527,0.596
8.364,0.1194,0.2004,0.2816,0.366
8.367,0.6975,0.4642,0.4791,0.965
8.368,0.6831,0.9562,0.7449,1.391
8.368,1.4805,0.3854,0.0338,1.53
8.369,-0.0541,-0.1117,-0.1937,0.23
8.375,0.2257,0.432,-1.4855,1.563
8.381,-0.2516,-0.1968,-1.1227,1.167
8.394,-0.7154,0.3146,0.011,0.782
8.401,0.0071,-0.2557,-1.4638,1.486
8.414,0.4059,-0.4635,1.1064,1.266
8.469,-0.236,-0.4037,-1.8649,1.923
8.472,-0.0866,0.6954,0.2708,0.751
8.473,-0.2465,0.7361,-0.6162,0.991
8.474,0.3872,-0.2673,0.7856,0.916
8.476,-0.5144,-0.6976,-0.2774,0.91
8.478,-0.6013,-0.3359,-0.5922,0.908
8.482,-0.2656,-0.2146,-0.3408,0.482
8.495,0.6185,0.4365,0.1213,0.767
8.5,0.391,-0.0503,-0.5539,0.68
8.538,-0.2596,-0.4865,-0.36,0.659
8.539,0.048,-0.0654,0.0758,0.111
8.539,0.1905,0.5416,0.4157,0.709
8.541,0.0776,0.697,0.1308,0.713
8.552,0.7066,0.5213,-0.1828,0.897
8.562,0.9356,-0.2742,0.0423,0.976
8.579,0.6367,-0.1237,1.3962,1.54
8.585,-0.3857,0.5006,0.387,0.741
8.598,-0.2442,0.5431,0.3547,0.693
8.602,-0.0526,0.1569,0.0794,0.184
8.617,-0.553,-0.8008,0.2243,0.999
8.623,0.4818,-1.3208,1.7399,2.237
8.671,-0.3004,-0.0037,-1.1321,1.171
8.674,0.086,0.3915,1.2908,1.352
8.675,-0.6234,-0.842,-0.846,1.347
8.676,-0.7566,-0.9664,0.3402,1.274
8.677,-0.4494,-0.8184,-0.3614,1.001
8.681,0.1509,0.4561,0.1126,0.493
8.692,0.5059,0.6319,0.4142,0.909
8.701,0.4287,0.1553,-0.0335,0.457
8.716,0.1625,-0.4715,-0.146,0.52
8.721,-0.5374,-0.3179,-0.5208,0.813
8.764,0.272,0.5182,0.7828,0.977
8.767,-0.3086,0.4026,-0.3221,0.601
8.768,-0.1476,-0.0682,-0.498,0.524
8.77,0.0627,-0.8345,-0.3807,0.919
8.774,0.0263,-0.4111,-0.2646,0.49
8.782,0.9546,0.278,1.6507,1.927
8.798,-0.264,0.4676,-1.0596,1.188
8.863,-0.1491,0.143,0.049,0.212
8.865,-0.3743,-0.3009,-0.279,0.555
8.866,-0.8279,-0.2309,0.055,0.861
8.867,0.2652,-0.1146,1.8458,1.868
8.868,0.1125,0.6141,-0.9291,1.119
8.869,-0.5455,-0.467,0.6009,0.936
8.871,0.1629,-0.3026,-0.5974,0.689
8.874,-0.0242,-0.0119,0.1221,0.125
8.882,0.5961,0.6272,0.9911,1.316
8.898,0.1355,0.5045,0.3028,0.604
8.901,-0.1271,-0.1312,0.7014,0.725
8.948,-0.137,-0.7521,0.2693,0.811
8.949,-0.3479,-0.2165,0.4309,0.595
8.949,0.1034,0.4205,-0.3352,0.548
8.949,0.5012,0.5366,0.1137,0.743
8.951,-0.2909,-0.0392,0.96,1.004
8.962,-0.6871,-0.9462,-1.8029,2.149
8.98,-0.9868,-0.5589,-1.0451,1.542
9,-0.4259,0.153,-0.5016,0.676
9.004,-0.4186,0.156,-0.5016,0.672
9.008,-0.1078,-0.4848,1.1457,1.249
9.012,-0.8505,-0.6035,-0.5351,1.172
9.021,-0.6913,-0.8515,-0.5146,1.212
9.032,-0.3327,0.1641,-0.11,0.387
9.084,1.1887,0.9219,0.7364,1.675
9.085,0.448,0.0683,0.4455,0.635
9.085,-0.1854,-0.6855,-0.6774,0.981
9.086,0.1824,0.0624,-0.6977,0.724
9.086,0.2496,0.3661,-0.25,0.509
9.095,0.9153,0.562,0.728,1.298
9.101,-0.262,-0.0954,-0.5422,0.61
9.118,-0.3397,-0.833,-0.5458,1.052
9.121,-0.0593,-0.8076,-0.055,0.812
9.163,0.1194,0.3358,-0.0239,0.357
9.166,0.3828,0.8624,0.6249,1.132
9.168,0.2783,0.1905,0.3484,0.485
9.168,0.5467,-0.4247,1.5849,1.73
9.173,-0.4674,-0.3921,-2.028,2.118
9.181,-0.9398,-0.2968,-1.4198,1.728
9.2,-0.9383,-0.2949,-1.4198,1.727
9.202,-0.047,-0.3709,0.1017,0.387
9.268,0.1973,-0.5952,0.3219,0.705
9.27,-0.3527,-0.5178,-1.3121,1.454
9.272,-0.7824,-0.3894,-0.8022,1.186
9.274,0.4328,0.9264,-0.2886,1.062
9.276,1.3058,0.0885,0.5722,1.428
9.279,-0.3167,-0.4573,0.2967,0.63
9.28,-0.6275,-0.0524,-0.4228,0.758
9.281,-0.4407,0.2686,-0.6262,0.812
9.296,0.6206,0.9143,0.0693,1.107
9.301,0.7425,0.1643,0.3075,0.82
9.339,-0.39,-0.2692,-0.3258,0.575
9.342,-0.2127,-0.6457,-0.7124,0.985
9.344,0.3315,0.6901,0.0968,0.772
9.346,0.5317,0.707,0.098,0.89
9.352,-0.1418,-0.066,0.2141,0.265
9.362,-0.5209,-0.4713,-0.7005,0.992
9.372,-0.1664,-0.8882,-0.2156,0.929
9.382,-0.3381,0.379,-0.3318,0.607
9.403,0.1492,0.1605,0.25,0.332
9.409,0.0924,0.2647,-0.4311,0.514
9.469,-0.4592,-0.5079,0.5541,0.881
9.471,0.6759,-0.0487,0.049,0.679
9.472,0.3681,0.7871,0.1208,0.877
9.474,-0.0087,0.9563,0.28,0.996
9.476,0.3148,1.03,-0.7591,1.318
9.477,0.7454,-0.1223,-0.6944,1.026
9.479,0.371,0.3763,1.0594,1.184
9.483,0.4432,1.0037,-1.111,1.562
9.499,-0.2781,0.5399,0.1364,0.622
9.503,0.2355,0.6214,-0.1663,0.685
9.52,0.0417,-0.5019,-0.177,0.534
9.523,-0.0878,-0.2244,-0.8341,0.868
9.585,0.0002,0.0397,-0.9382,0.939
9.586,-0.002,0.668,-0.4617,0.812
9.587,0.3528,0.0673,0.0256,0.36
9.587,-0.2906,-0.8112,-0.0534,0.863
9.588,-0.3092,-0.4151,-0.7525,0.913
9.588,0.3673,0.2747,0.2866,0.541
9.595,0.3667,0.2745,0.2866,0.54
9.601,0.0785,0.0186,-0.1803,0.197
9.622,-0.1583,-0.3605,-0.7345,0.833
9.626,0.3945,-0.704,1.3293,1.555
9.672,0.4875,0.3972,0.4733,0.787
9.674,0.3869,0.6786,-0.6257,1.001
9.675,0.1056,0.1428,0.3979,0.436
9.676,-0.3018,-0.6627,-0.3647,0.814
9.678,-0.0615,-0.3525,-0.4928,0.609
9.683,0.6039,0.5582,1.0071,1.3
9.694,0.5011,0.0521,0.3152,0.594
9.7,0.1508,0.6184,-0.0463,0.638
9.717,-0.4774,-0.4959,-0.8723,1.111
9.721,-0.341,-0.8305,-0.0834,0.902
9.779,-0.5808,-0.3169,-0.7562,1.005
9.781,0.102,0.6137,-0.0524,0.624
9.782,0.2825,-0.1531,-0.5647,0.65
9.783,-0.2561,-0.8712,0.1164,0.916
9.783,-0.71,-0.5846,-0.4127,1.008
9.784,-0.1301,0.0306,-0.4356,0.456
9.797,0.5794,0.4455,0.0732,0.735
9.801,0.0207,-0.2871,0.2527,0.383
9.82,0.0593,-0.5737,-0.2106,0.614
9.822,-0.6086,-0.6274,-0.401,0.962
9.876,0.8185,-0.2033,0.8583,1.203
9.879,0.1387,0.3189,0.8091,0.881
9.881,0.4495,0.3106,-0.1007,0.556
9.884,-0.5144,-0.8192,-0.6634,1.173
9.886,-0.5195,-0.0625,-0.6718,0.852
9.888,-0.8109,-0.126,-0.4635,0.942
9.895,0.5913,0.6045,1.9414,2.118
9.902,-0.165,-0.1504,-2.0401,2.052
9.922,-1.0334,-1.2907,0.5875,1.755
9.924,-0.4112,-0.5881,-1.1878,1.388
9.983,0.0584,0.1231,0.5216,0.539
9.983,0.3415,0.544,0.1062,0.651
9.984,0.2154,0.0138,0.3552,0.416
9.984,0.0611,-0.4053,0.3827,0.561
9.985,-0.3849,-0.7008,-0.0949,0.805
9.998,0.6647,0.8129,0.0523,1.051
10,0.6346,0.5213,0.2893,0.871
10.002,0.0392,-0.3678,0.5981,0.703
10.018,-0.3959,-0.5039,-1.0766,1.253
10.021,-0.5855,-0.7166,-0.5583,1.081
10.079,-0.4476,0.3159,-0.4877,0.733
10.081,0.6287,0.7334,-0.0041,0.966
10.082,0.0949,-0.4508,0.5287,0.701
10.083,-0.177,0.0969,-0.1441,0.248
10.084,-0.7921,-0.803,-1.2335,1.671
10.085,-0.5929,0.3961,-0.5619,0.908
10.093,0.3058,0.7518,-0.1728,0.83
10.102,-0.1346,-0.6345,1.6828,1.803
10.113,-0.1889,-0.6433,-1.6679,1.798
10.128,-0.8146,-0.8156,-0.0913,1.156
10.133,-0.6274,-0.1626,-0.5641,0.859
10.142,-0.2563,0.4949,0.3469,0.657
10.193,0.2926,-0.2247,0.1447,0.396
10.196,-0.5474,-0.7541,-0.5077,1.061
10.197,-0.3813,-0.1744,-0.5208,0.669
10.198,0.0419,0.5337,-0.3962,0.666
10.198,0.5318,1.0965,0.0504,1.22
10.202,0.5665,0.7626,0.5688,1.107
10.212,0.095,-0.0771,0.1702,0.21
10.221,-0.3139,0.0085,0.2168,0.382
10.238,0.0421,0.6036,-0.3326,0.69
10.243,0.1956,0.6819,-0.1578,0.727
10.307,0.3399,0.5313,-0.0548,0.633
10.309,0.344,-0.8741,1.28,1.588
10.311,-0.6762,-0.3255,-1.0568,1.296
10.312,-0.9283,0.3418,-0.7252,1.227
10.314,-0.3403,0.6116,0.3104,0.766
10.316,-0.032,0.28,0.4111,0.498
10.318,0.0946,-0.7965,0.7547,1.101
10.324,-0.1303,-0.5636,-1.1175,1.258
10.339,-0.1815,0.0717,-0.0952,0.217
10.342,0.2029,1.0063,-0.4267,1.112
10.387,0.2725,0.9533,-0.3548,1.053
10.389,0.3892,-0.4682,0.3204,0.688
10.39,-0.3333,0.0764,-1.1485,1.198
10.392,-0.052,0.1789,-0.5319,0.564
10.394,0.5244,0.743,-0.1799,0.927
10.402,0.2485,-0.2726,-0.2278,0.434
10.417,-0.3287,-0.4944,-0.3403,0.684
10.421,0.0193,0.1132,-0.2937,0.315
10.469,0.1879,-0.0252,1.7271,1.737
10.471,-0.2773,0.1982,-1.0143,1.07
10.472,0.1944,-0.1858,-0.624,0.68
10.474,-0.1339,-0.1789,-0.9054,0.933
10.476,0.497,-0.7092,-0.0854,0.87
10.482,-0.0431,0.2075,1.0937,1.114
10.496,-0.3181,0.5557,0.1169,0.651
10.51,0.1657,-0.1272,-0.411,0.461
10.514,0.4727,-0.3669,-0.3392,0.688
10.522,1.0074,-0.5007,-0.4661,1.218
10.579,0.8033,0.4892,0.677,1.159
10.582,0.7682,1.0382,-0.063,1.293
10.583,0.057,0.1871,-0.949,0.969
10.583,0.177,-0.5254,-0.6007,0.817
10.584,-0.0749,-0.7434,-0.1793,0.768
10.585,0.0046,0.1136,-1.3478,1.353
10.598,0.0006,0.1139,-1.3479,1.353
10.601,0.4122,-0.0076,-0.2514,0.483
10.62,-0.3352,-0.5566,-0.4358,0.782
10.623,-0.6679,-0.4197,-0.637,1.014
10.678,-0.1224,-0.5403,-0.8656,1.028
10.681,0.2284,-0.0477,0.9,0.93
10.682,-0.6737,-0.5196,-0.6263,1.056
10.682,-0.1786,-1.0195,-1.0836,1.499
10.683,-0.4055,-0.5349,0.0643,0.674
10.684,0.3808,0.3508,0.6305,0.816
10.694,0.8357,0.2553,0.6795,1.107
10.701,-0.2335,-0.1223,-0.0304,0.265
10.723,-0.2076,-0.6065,-0.7079,0.955
10.726,-0.3804,-0.2956,-0.35,0.595
10.776,0.8847,0.3894,1.2792,1.603
10.778,0.0786,0.2624,0.6698,0.724
10.78,0.2825,0.3349,1.0218,1.112
10.781,0.2287,-0.1749,-0.064,0.295
10.782,0.1841,0.2277,1.0888,1.127
10.783,0.665,0.8358,1.3006,1.683
10.792,0.6114,0.8158,-0.0581,1.021
10.805,0.1368,-0.0549,0.2399,0.282
10.855,-0.0896,-0.398,-0.1515,0.435
10.857,-0.4484,-0.1713,-0.4317,0.646
10.858,-0.3158,0.2115,-0.5382,0.659
10.858,0.2938,0.2275,-0.3203,0.491
10.859,0.5957,-0.1212,0.0268,0.608
10.864,0.0291,-0.4815,0.0532,0.485
10.872,-0.975,-0.5349,-0.288,1.149
10.883,-0.0584,0.5106,-0.1324,0.531
10.892,0.001,0.2569,1.7949,1.813
10.908,0.8765,0.2158,0.6696,1.124
10.914,-0.0481,-0.6483,-0.9441,1.146
10.979,-0.7963,-0.7804,-1.1488,1.601
10.98,-0.3484,0.527,-0.3635,0.729
10.98,0.2276,0.9562,-0.3802,1.054
10.981,0.6041,0.3258,1.2107,1.392
10.981,0.0732,0.4411,-0.5298,0.693
10.982,-0.1692,-0.3169,-0.3144,0.477
10.998,-0.1258,0.358,-0.7537,0.844
11.002,0.3688,0.8622,0.0436,0.939
11.007,-0.1054,-0.1465,0.507,0.538
11.018,-0.502,-0.7392,-0.9894,1.333
11.023,-0.5962,-0.5463,-0.4507,0.926
11.037,-0.1966,0.1762,0.2233,0.346
11.042,0.5624,0.5625,0.6196,1.008
11.109,-0.45,-0.3649,-0.4064,0.708
11.113,0.2722,-0.657,-0.3034,0.773
11.114,-0.54,-0.72,-0.9055,1.277
11.116,-0.7754,0.1907,-0.4483,0.916
11.119,0.086,0.9266,-0.1071,0.937
11.122,0.7501,-0.2881,1.0565,1.327
11.123,0.0842,-0.3527,-0.149,0.392
11.124,0.1979,0.0888,-1.1354,1.156
11.134,-0.3734,0.5634,-0.4099,0.79
11.141,-0.7828,0.3848,-0.5069,1.009
11.155,0.3685,-0.0747,-0.6529,0.753
11.161,-0.0534,-0.2128,0.9237,0.949
11.219,-0.0428,-0.0174,-1.6943,1.695
11.221,-0.6318,-0.3561,-0.6193,0.954
11.222,-0.3525,0.7618,-0.4385,0.947
11.223,0.2307,-0.2309,0.4043,0.52
11.223,-0.4895,-0.6333,-0.6611,1.038
11.224,-0.5318,-0.2403,-1.772,1.866
11.232,-0.2456,0.0018,-0.5054,0.562
11.241,0.3349,0.5348,0.0729,0.635
11.255,-0.0052,-0.1542,-0.3724,0.403
11.262,0.3178,-0.1164,0.0262,0.339
11.331,0.049,-0.4294,0.116,0.447
11.333,0.6205,0.8206,0.6655,1.225
11.334,0.7426,1.1166,1.2604,1.84
11.336,0.6901,0.2803,0.189,0.768
11.337,0.5285,-0.6226,2.1331,2.284
11.338,-0.1781,-0.0561,-0.0325,0.19
11.339,0.3928,0.7112,-0.5414,0.976
11.342,0.3878,0.7063,-0.5414,0.971
11.353,-0.6721,-0.035,-0.1523,0.69
11.362,-0.8924,-0.7067,-0.6515,1.312
11.378,-0.3614,-1.1578,1.4638,1.901
11.383,-0.0387,0.316,-2.0426,2.067
11.393,0.0292,0.5105,1.1237,1.235
11.438,0.2728,0.4884,-0.9628,1.114
11.44,-0.1438,-0.5429,0.6952,0.894
11.441,-0.637,-0.4339,-0.3223,0.835
11.442,0.115,0.3289,0.5611,0.661
11.443,0.3096,0.7459,0.6629,1.045
11.453,0.5231,0.1285,0.2248,0.584
11.462,0.2136,-0.4459,-0.3558,0.609
11.474,0.2829,0.0266,-0.3798,0.474
11.515,0.1758,0.4777,0.5899,0.779
11.517,0.4561,0.6353,-0.6719,1.031
11.519,0.0116,0.0735,0.1613,0.178
11.521,0.2791,-0.041,0.1529,0.321
11.523,0.5379,-0.1189,0.6833,0.878
11.532,0.5379,0.2517,1.6481,1.752
11.541,0.0659,0.952,-0.3726,1.024
11.554,0.1245,0.0767,0.1996,0.247
11.562,0.0356,-0.4646,-0.6395,0.791
11.616,-0.5005,-0.6052,-0.0074,0.785
11.619,-0.0826,-0.2204,1.6482,1.665
11.62,0.1146,0.2085,-0.9052,0.936
11.622,-0.1719,0.0276,0.4439,0.477
11.623,-0.8111,-1.0155,-0.8466,1.551
11.624,-0.6782,-0.6105,-0.1367,0.923
11.632,-0.1366,0.0726,-0.5187,0.541
11.641,-0.1504,0.1075,0.348,0.394
11.654,0.2058,-0.0056,0.2558,0.328
11.661,-0.0165,-0.5342,-0.2374,0.585
11.724,0.2878,0.4922,-0.1392,0.587
11.725,0.0947,0.4171,-0.1333,0.448
11.726,0.3347,0.532,0.0295,0.629
11.726,0.109,-0.1949,0.8999,0.927
11.727,-0.4986,-0.4481,-2.215,2.314
11.727,-1.014,-0.8595,-1.3411,1.888
11.734,-0.8093,0.1177,-0.2027,0.843
11.741,0.6748,0.4356,0.779,1.119
11.765,-0.8958,-0.1166,-0.8168,1.218
11.768,-1.2785,-0.5913,-1.1435,1.814
11.773,-0.6722,-0.7331,-0.6466,1.186
11.782,-0.6321,0.0058,0.547,0.836
11.831,0.4201,0.2485,1.8173,1.882
11.834,-0.1218,-0.0657,-0.8402,0.852
11.835,-0.8035,-1.0944,-0.5684,1.472
11.837,-0.7688,-0.8428,-0.9753,1.501
11.838,-0.1174,0.4784,0.082,0.499
11.843,0.7711,0.0185,0.731,1.063
11.854,-0.1112,-0.0584,-0.6696,0.681
11.861,-0.5847,-0.6968,-0.3547,0.976
11.876,-0.7074,-0.4296,0.2152,0.855
11.955,0.1361,0.4514,0.1137,0.485
11.959,0.6483,0.893,0.8535,1.395
11.961,0.0124,-0.0388,0.0862,0.095
11.967,-0.2933,-0.8686,0.6477,1.123
11.969,-0.3528,-0.7085,-1.2449,1.475
11.971,-0.674,-0.1588,-0.7468,1.018
11.973,0.0944,0.5995,-0.7096,0.934
11.974,0.4271,-0.1485,0.4636,0.648
11.977,-0.2039,-0.4633,0.5917,0.779
11.978,-0.2454,-0.6307,-1.1536,1.337
11.992,-0.0794,0.4123,-0.5765,0.713
11.998,0.7377,1.0945,-0.003,1.32
12.002,1.4017,0.3096,0.264,1.46
12.012,0.6612,0.0125,0.1704,0.683
12.021,-0.5995,-0.3335,-0.7109,0.988
12.088,0.1157,0.4701,-0.8797,1.004
12.088,0.5795,0.6341,0.2419,0.892
12.089,0.7586,0.2297,0.188,0.815
12.089,-0.1753,-0.3868,-0.7783,0.887
12.089,-0.6166,-0.6626,-0.5473,1.058
12.09,-0.1517,0.3935,-0.2493,0.49
12.092,0.3607,0.6581,-0.6168,0.971
12.151,0.2388,0.1694,0.36,0.464
12.154,0.0978,-0.5423,-0.3008,0.628
12.155,0.5953,0.2773,1.4002,1.547
12.16,-0.1626,0.7596,-1.1653,1.4
12.162,-0.197,0.8105,-0.5727,1.012
12.165,0.298,0.5724,-0.1836,0.671
12.169,-0.209,-0.4122,0.2749,0.538
12.184,0.464,-0.0891,0.5849,0.752
12.189,-0.2778,0.2457,-0.2364,0.44
12.192,0.2736,0.6306,-0.429,0.81
12.243,0.2466,0.1123,-0.4326,0.51
12.248,0.374,-0.8575,0.725,1.183
12.252,-0.4314,-0.3948,-0.4567,0.742
12.254,0.5972,0.9236,0.0126,1.1
12.257,0.1489,1.0052,0.5178,1.141
12.259,0.7257,0.9699,0.1574,1.222
12.262,0.3188,0.1429,0.2999,0.46
12.273,0.4979,0.2238,-1.0002,1.139
12.289,0.4451,0.2459,-0.3011,0.591
12.297,0.4538,0.8693,-0.3263,1.033
12.371,0.4233,0.1009,-0.3945,0.587
12.373,-0.5431,-0.7857,-0.4232,1.045
12.374,0.2219,0.2189,-0.5369,0.621
12.374,0.7771,0.1575,0.3346,0.861
12.375,-0.1591,0.7486,0.1418,0.778
12.376,-0.1092,-0.0382,-0.0317,0.12
12.377,-0.4548,-0.5847,-0.2591,0.785
12.378,-0.1369,-0.2779,1.606,1.636
12.391,1.2802,0.4163,1.1547,1.774
12.394,-0.0328,-0.083,-0.3561,0.367
12.447,-0.0891,-0.2337,0.1754,0.305
12.45,0.4274,-0.3333,-0.5704,0.787
12.452,0.269,-0.4414,-0.6027,0.794
12.453,0.5231,0.5961,1.3317,1.55
12.456,0.1007,0.9014,-0.2868,0.951
12.457,-0.3942,-0.3877,-0.3227,0.64
12.461,-0.3105,-0.5331,-0.9009,1.092
12.474,-0.3115,-0.6936,-0.1779,0.781
12.536,-0.0633,0.0433,-0.5442,0.55
12.538,0.4578,0.7399,-0.0043,0.87
12.539,0.7815,0.5876,-0.2593,1.012
12.54,0.0749,-0.8264,0.0244,0.83
12.542,-0.5989,-1.0435,-0.5909,1.34
12.543,-0.4174,-0.3259,-0.3995,0.663
12.544,-0.128,-0.1345,-0.5624,0.592
12.553,-0.0717,-0.5554,-0.1291,0.575
12.561,-0.8544,-1.1503,-0.0489,1.434
12.574,-0.3694,0.2417,-0.8464,0.955
12.582,0.7968,0.2008,1.6627,1.855
12.636,0.5571,0.6489,0.1088,0.862
12.64,0.5483,0.1839,-0.0061,0.578
12.643,-0.1996,-0.8118,-0.3964,0.925
12.644,-0.3239,0.0129,-0.2683,0.421
12.646,-0.3241,0.0152,-0.2684,0.421
12.65,0.5156,0.6143,1.5285,1.726
12.659,0.2998,0.1892,-0.4946,0.609
12.663,-0.6126,-0.7516,-0.0086,0.97
12.682,-0.2166,-0.8913,-0.9016,1.286
12.684,-0.0368,0.3092,0.6953,0.762
12.692,0.2459,0.0404,-0.509,0.567
12.762,-0.6351,-0.3247,-0.6958,0.996
12.766,-0.4,-0.7283,-0.6874,1.078
12.769,-0.8367,-0.9202,-0.1811,1.257
12.77,0.0521,0.5236,-0.6313,0.822
12.773,0.6856,0.4515,0.2629,0.862
12.774,0.0132,-0.6473,0.0858,0.653
12.775,0.24,-0.1187,-0.0208,0.269
12.776,-0.2822,0.0289,0.0941,0.299
12.783,0.0081,0.4977,-0.0172,0.498
12.794,0.6824,0.7302,1.6575,1.935
12.867,-0.1164,0.1732,-0.538,0.577
12.868,-0.14,-0.4427,-1.0407,1.14
12.868,-0.8458,-1.0292,-1.3089,1.868
12.869,-1.0444,-0.0498,-0.7319,1.276
12.869,-0.4074,0.5847,-0.3428,0.791
12.869,0.0137,-0.1842,2.1209,2.129
12.87,-0.6045,-0.4608,-1.5422,1.719
12.873,-1.0897,-0.681,0.0153,1.285
12.886,-0.3004,0.0814,-0.2803,0.419
12.901,-0.2084,0.325,0.4021,0.558
12.907,-0.0336,0.0462,0.4286,0.432
12.913,-0.6189,-0.4465,-0.3219,0.828
12.963,-0.4645,-0.5355,-0.2751,0.76
12.966,0.4942,0.6458,-0.0858,0.818
12.968,0.852,0.8625,0.6074,1.356
12.969,0.4824,0.2028,0.3572,0.634
12.973,-0.0153,-0.3594,0.3129,0.477
12.974,0.3888,0.314,-0.95,1.073
12.993,-0.0402,0.6993,-0.0642,0.703
12.995,-0.1625,0.6429,0.0507,0.665
13.001,0.4221,0.6083,-0.7513,1.055
13.012,0.3573,-0.4954,1.2826,1.421
13.061,-0.4751,0.2744,-1.4588,1.559
13.062,-0.335,0.2125,-0.8638,0.951
13.062,-0.0514,0.5923,0.1323,0.609
13.063,0.1907,-0.1281,-0.4075,0.468
13.064,0.0393,-0.6544,0.81,1.042
13.128,-0.1477,-0.0377,-2.512,2.517
13.131,-0.8682,-0.5907,-0.9594,1.422
13.133,-0.5987,0.0998,-0.7199,0.942
13.137,-0.1004,-0.4929,-0.8479,0.986
13.138,-0.2251,-0.7757,-0.3247,0.871
13.142,-0.4043,-0.3764,-1.2536,1.37
13.143,0.0609,0.2597,-0.5496,0.611
13.145,0.6693,0.6473,0.0574,0.933
13.153,0.5703,-0.0342,0.5207,0.773
13.162,-0.1111,-0.3277,0.0083,0.346
13.177,0.0728,0.1796,-0.4395,0.48
13.181,0.3932,0.4086,1.1491,1.281
13.265,-0.1864,0.5828,-1.0416,1.208
13.268,0.0043,-0.334,-0.0851,0.345
13.269,-0.0991,-0.4317,-0.9339,1.034
13.27,0.4693,-0.7726,1.0485,1.384
13.27,-0.5116,-0.0205,-0.1175,0.525
13.272,-0.101,0.8215,-0.2828,0.875
13.274,-0.0781,0.2902,0.0189,0.301
13.275,-0.5254,-0.6202,-0.011,0.813
13.276,-0.0984,-1.0862,1.3118,1.706
13.281,-0.2418,-0.0183,-0.691,0.732
13.293,0.0324,-0.0267,0.8043,0.805
13.309,0.4681,0.0098,-0.71,0.851
13.312,0.0966,-0.3327,0.1088,0.363
13.378,0.2606,-0.6598,0.2787,0.762
13.38,0.2166,0.9154,-0.43,1.034
13.382,0.5428,0.9328,0.1961,1.097
13.383,0.3214,0.0123,-0.1571,0.358
13.384,-0.2919,-0.5446,-0.6253,0.879
13.386,-0.3523,-0.2283,-0.332,0.535
13.388,0.3143,0.5527,-0.016,0.636
13.396,0.3767,0.7519,0.743,1.122
13.467,0.0451,0.0399,-0.8205,0.823
13.47,0.328,-0.4417,-0.7463,0.927
13.471,-0.2274,-0.4114,-0.2926,0.554
13.474,0.7842,0.3647,1.1667,1.452
13.477,0.0442,0.4969,0.4567,0.676
13.48,-0.1519,-0.0619,-0.5728,0.596
13.482,-0.6825,-1.2209,-0.665,1.549
13.484,-0.2342,-0.3373,-0.6901,0.803
13.487,1.2078,0.2027,0.9846,1.571
13.5,0.6199,0.9016,-0.0378,1.095
13.503,0.3781,0.6659,-0.0331,0.766
13.513,0.2449,-0.1983,-0.8292,0.887
13.57,-0.0952,-0.7624,0.8646,1.157
13.573,0.083,0.4414,0.2277,0.504
13.576,0.1802,0.4953,0.321,0.617
13.579,0.2125,-0.1146,0.7149,0.755
13.582,-0.2478,-0.6711,0.6155,0.944
13.584,-0.5814,-0.4314,-0.3315,0.796
13.586,-0.3004,0.1683,-0.0645,0.35
13.599,0.5381,0.2502,-0.3028,0.666
13.668,0.4321,-0.1148,0.7519,0.875
13.671,-0.7259,-0.3262,-2.2936,2.428
13.676,-1.1408,-0.6124,-1.7178,2.151
13.678,-0.2925,0.2894,-0.7409,0.847
13.679,0.3295,0.7739,0.1941,0.863
13.682,-0.1182,-0.5464,1.7803,1.866
13.684,-0.5303,-0.7587,-0.9323,1.314
13.685,-0.5553,-0.7659,-0.7921,1.234
13.687,-0.0318,0.0596,0.2949,0.303
13.699,0.893,0.5721,1.528,1.86
13.701,-0.182,-0.3818,-0.6807,0.801
13.776,-0.3421,-0.5452,-0.555,0.85
13.777,-0.7369,-0.6076,-0.1216,0.963
13.778,-0.096,0.299,0.2759,0.418
13.778,0.8208,0.8315,0.5812,1.305
13.779,0.026,-0.1625,-0.1215,0.205
13.779,-0.5002,-0.7366,-0.2257,0.919
13.78,-0.4631,-0.3424,-0.5058,0.767
13.781,0.1017,0.5126,0.0162,0.523
13.798,0.4936,0.6028,0.4424,0.896
13.869,-0.3814,-0.3627,-0.0615,0.53
13.871,0.0576,-0.718,-0.3788,0.814
13.872,0.0118,-0.6427,-0.21,0.676
13.873,-0.2233,0.5217,-0.3225,0.653
13.873,0.3045,0.8403,0.1791,0.912
13.874,-0.2544,-0.1457,0.8136,0.865
13.875,0.6954,-0.334,-0.0184,0.772
13.877,0.0216,-0.877,-1.6058,1.83
13.882,-0.5825,-0.2769,-1.079,1.257
13.896,0.5454,1.0361,-0.247,1.197
13.966,0.6835,0.9375,-0.3128,1.202
13.976,0.6309,0.143,1.1188,1.292
13.977,-0.3083,0.1343,-1.5676,1.603
13.978,-0.6801,-0.3166,-0.2485,0.79
13.98,0.1964,0.6476,-0.6087,0.91
13.982,0.7447,0.1767,-0.2317,0.8
13.986,-0.1969,-0.6423,-0.3047,0.738
13.988,-0.6443,-0.2031,-1.3067,1.471
14.005,0.3459,1.0027,-0.4137,1.139
14.009,0.4397,0.6505,0.1035,0.792
14.01,-0.2546,-0.4653,0.0137,0.531
14.026,-0.4588,-0.7028,-0.956,1.272
14.027,-0.1781,-0.8798,-0.3921,0.98
14.032,0.1166,-0.034,-0.2149,0.247
14.088,-0.3077,0.124,-0.592,0.679
14.089,0.017,0.9587,0.3585,1.024
14.089,0.9937,-0.1332,1.0971,1.486
14.09,0.216,0.3204,-0.1743,0.424
14.09,0.7965,0.8119,0.2914,1.174
14.092,0.2792,0.7946,0.0064,0.842
14.111,0.391,0.4013,-0.3755,0.675
14.114,0.18,-0.3257,-1.0878,1.15
14.175,0.4348,0.4551,1.1878,1.344
14.178,0.4848,0.9131,-0.8773,1.356
14.18,0.118,0.9006,-0.0082,0.908
14.182,0.2832,0.8774,-0.9096,1.295
14.187,0.2989,-0.7924,0.0973,0.852
14.19,-0.3605,-0.3233,-0.9358,1.054
14.191,0.4549,0.5736,-0.4976,0.885
14.193,0.2302,0.0625,-0.3635,0.435
14.208,0.1222,-0.183,-0.0833,0.235
14.213,0.0101,-0.4638,-0.4939,0.678
14.283,-0.4994,-0.4365,-0.6543,0.932
14.29,0.5329,0.6323,-0.4054,0.921
14.294,0.2243,0.892,0.21,0.943
14.298,0.2882,0.3546,0.0364,0.458
14.299,-0.5345,-0.8217,-0.167,0.994
14.302,-0.0299,-0.7481,1.1857,1.402
14.304,-0.3201,-0.164,-0.0808,0.369
14.305,-0.024,0.4468,-0.8937,0.999
14.308,-0.0297,0.0853,-0.4615,0.47
14.326,-0.5219,-0.4025,-1.0146,1.21
14.329,-0.8757,-0.8565,-0.3119,1.264
14.333,-0.2013,-0.5054,1.2096,1.326
14.387,-0.1318,0.43,-1.4767,1.544
14.389,-0.6819,-0.7447,0.9677,1.399
14.39,-0.6604,-0.6984,-0.7298,1.207
14.391,-0.2449,0.4041,-0.2832,0.551
14.393,0.184,0.3944,-0.44,0.619
14.393,0.5977,0.5557,0.6554,1.047
14.402,0.7827,0.4631,0.1993,0.931
14.415,-0.1839,-0.5774,0.0042,0.606
14.486,-0.1827,-0.5489,-0.5944,0.829
14.49,0.2889,0.2215,-0.0354,0.366
14.493,-0.139,0.378,0.3728,0.549
14.497,0.2668,-0.052,-0.5585,0.621
14.498,-0.5179,-1.0529,-0.2425,1.198
14.501,-0.8079,-0.5639,-0.8267,1.286
14.503,0.3408,0.4843,0.0065,0.592
14.505,0.7541,0.3149,1.37,1.595
14.507,-0.403,-0.0581,-1.4624,1.518
14.522,-0.7356,-1.0975,-0.7657,1.527
14.524,-0.5683,-0.8398,-1.3175,1.663
14.532,-0.4177,-0.3296,-0.1635,0.557
14.594,0.4097,-0.013,0.951,1.036
14.597,0.0692,-0.1076,-1.3703,1.376
14.598,-0.1296,-0.9927,-0.7717,1.264
14.599,0.0331,-0.9781,-0.7394,1.227
14.602,-0.2055,0.2127,0.1476,0.331
14.606,0.2961,0.0771,0.1643,0.347
14.608,-0.8363,-0.494,-0.8293,1.277
14.623,-0.9293,-0.9269,-0.3193,1.351
14.626,-0.4054,-0.7513,-0.033,0.854
14.633,0.648,0.7456,0.0318,0.988
14.691,0.2615,0.6907,0.1851,0.761
14.693,0.4158,0.8583,0.3443,1.014
14.693,0.3714,-0.0526,0.901,0.976
14.694,-0.5395,-0.4592,-2.0607,2.179
14.697,-0.4074,0.4151,-0.6301,0.857
14.7,0.0371,0.5521,-0.7773,0.954
14.703,0.6203,-0.0715,1.1644,1.321
14.717,-0.7971,-0.0469,-0.6576,1.034
14.783,-0.8873,-0.4888,-0.8851,1.345
14.785,-0.579,0.465,-0.6012,0.955
14.787,0.4851,0.4432,-0.2563,0.705
14.789,0.5891,-0.4226,1.4879,1.655
14.792,-0.4506,-0.4762,-0.5376,0.848
14.793,-0.3949,-0.3304,-0.0276,0.516
14.794,-0.1184,0.4476,-0.8056,0.929
14.795,0.5301,0.9115,-0.11,1.06
14.806,0.3723,-0.3543,0.4215,0.665
14.812,-0.5926,-0.0601,-1.1108,1.26
14.885,0.0361,-0.1434,-0.9887,1
14.89,-0.1075,0.2775,-0.4942,0.577
14.892,0.4321,0.8353,-0.104,0.946
14.896,0.3754,0.3413,0.4682,0.69
14.898,0.0962,-0.3638,0.1055,0.391
14.899,-0.0692,0.2856,0.2431,0.381
14.9,0.2519,0.8268,-0.4093,0.956
14.902,0.402,0.9,-0.1112,0.992
14.904,0.1694,0.6431,-0.3411,0.747
14.917,0.7481,-0.3005,0.8799,1.193
14.996,-0.5381,0.153,-0.0192,0.56
14.999,-0.2502,0.4504,-0.6752,0.849
15.002,0.067,0.6233,-0.4765,0.787
15.007,0.6815,0.671,-0.3579,1.021
15.01,0.7927,-0.8378,1.3157,1.75
15.013,-0.0176,-0.0133,-1.0702,1.07
15.033,0.4725,0.6793,-0.8429,1.181
15.034,0.2537,0.2187,-0.1091,0.352
15.037,0.5463,0.1939,0.8677,1.044
15.039,-0.1374,-0.6005,-0.2121,0.652
15.042,-0.0125,-0.2593,-0.8431,0.882
15.044,0.2738,0.5061,-0.1811,0.603
15.046,0.3887,0.8069,0.5455,1.049
15.057,0.1351,-0.3075,0.2175,0.4
15.06,-0.4155,-0.5909,-0.1309,0.734
15.135,0.0367,-0.315,-0.763,0.826
15.136,0.4676,0.1729,1.2685,1.363
15.136,-0.0653,0.6891,-1.3508,1.518
15.137,-0.5185,-0.6044,-0.7439,1.09
15.137,-0.4587,-0.6977,-0.4985,0.972
15.137,-0.2599,-0.1737,0.1516,0.347
15.138,0.7978,-0.0405,1.1523,1.402
15.146,0.1782,0.1705,0.2736,0.368
15.152,0.4063,0.0983,-0.3249,0.529
15.211,0.207,-0.4144,-0.386,0.603
15.214,0.4046,-0.6772,0.7811,1.11
15.214,-0.2497,0.2243,-0.6711,0.75
15.215,-0.2109,-0.097,0.6636,0.703
15.217,0.227,-0.1852,-0.7538,0.809
15.217,0.0747,-0.406,0.1129,0.428
15.221,-0.1509,-0.4403,0.0302,0.466
15.293,0.01,0.3102,-0.7144,0.779
15.297,0.3494,0.4299,0.4718,0.728
15.3,0.4102,0.0533,-0.159,0.443
15.302,-0.3716,-0.7877,-0.3961,0.957
15.304,-0.2494,-0.0776,-0.5494,0.608
15.307,0.2988,0.3795,-0.7685,0.908
15.309,0.309,0.2173,0.4035,0.553
15.31,-0.5686,-0.5189,-0.3363,0.84
15.313,-0.5732,-0.8696,-0.8104,1.32
15.327,-0.0631,-0.5655,-0.9002,1.065
15.332,-0.2712,-0.4714,0.4142,0.684
15.401,0.4828,-0.1666,0.1209,0.525
15.405,0.3529,-0.1027,-0.8057,0.886
15.41,-0.5361,-0.8695,-0.7088,1.243
15.412,-0.4378,-0.6313,-0.6035,0.977
15.414,0.5123,0.6122,-0.2659,0.841
15.416,0.7171,1.0922,1.3429,1.874
15.417,0.6821,0.3123,-0.5401,0.924
15.419,-0.6808,-0.7485,-0.7521,1.261
15.431,0.4881,0.2958,-0.2325,0.616
15.434,0.5291,0.8937,0.7287,1.269
15.504,0.0779,0.4013,0.0859,0.418
15.507,-0.4481,-0.5285,-0.0602,0.696
15.509,0.0242,-0.2621,-0.3643,0.449
15.512,-0.5439,-0.4153,0.1002,0.692
15.514,0.0138,0.5799,-0.2386,0.627
15.515,0.2418,0.3206,0.2917,0.496
15.518,-0.0134,-0.4983,-0.1727,0.528
15.519,0.0093,-0.4587,0.0595,0.463
15.581,-1.0766,-0.491,-0.6384,1.345
15.584,-0.32,0.4567,-0.6085,0.825
15.587,0.4569,0.5947,1.4853,1.664
15.591,0.3365,-0.0566,-0.2793,0.441
15.595,0.2209,-0.5783,0.0021,0.619
15.597,-0.6076,-0.6877,-0.7186,1.166
15.598,0.2336,0.5465,-0.5258,0.794
15.6,0.8735,0.8685,-0.369,1.286
15.603,0.3231,0.1217,1.2949,1.34
15.618,0.0053,-0.1171,-1.6236,1.628
15.622,-0.6349,-0.2173,-1.0514,1.247
15.699,-0.2716,0.3185,-0.2553,0.49
15.703,0.0947,0.3799,0.6186,0.732
15.703,-0.061,-0.1247,-0.636,0.651
15.707,-0.6158,-0.7746,-1.2058,1.56
15.71,-0.3527,-0.5769,-0.5904,0.898
15.713,-0.1503,0.4033,-0.1858,0.469
15.714,0.4607,0.4523,0.2392,0.689
15.717,-0.2606,-0.4334,0.0022,0.506
15.719,-0.0737,-0.5787,-0.4156,0.716
15.731,-0.2014,-0.5859,-0.2971,0.687
15.733,0.1122,0.83,0.0956,0.843
15.801,0.0856,0.7239,0.0824,0.734
15.803,-0.3914,-0.3381,0.845,0.991
15.803,0.144,-0.4114,-0.3784,0.577
15.804,-0.0372,-0.4442,-1.4905,1.556
15.807,-0.3846,0.2412,-1.0284,1.124
15.808,-0.154,1.0356,-0.2443,1.075
15.81,0.3654,0.8294,-0.2729,0.947
15.82,0.5762,0.338,1.2941,1.456
15.823,-0.6726,-0.3893,-2.8156,2.921
15.889,-0.6849,-0.405,0.0922,0.801
15.89,-0.299,0.5058,-1.0593,1.211
15.89,0.1828,-0.102,-0.3601,0.417
15.891,-0.5532,-0.6346,-0.5672,1.015
15.892,-0.4521,-0.3051,-1.2207,1.337
15.892,-0.2234,0.1656,0.0758,0.288
15.893,-0.0557,0.7371,-0.0845,0.744
15.901,0.5978,0.287,0.3046,0.73
15.972,-0.1728,-0.4677,-0.5477,0.741
15.977,0.0729,-0.0693,0.2807,0.298
15.98,-0.1478,0.6057,-0.38,0.73
15.982,0.2365,0.2831,0.4544,0.585
15.984,0.3769,0.2281,0.282,0.523
15.988,0.4132,-0.2557,-0.2567,0.55
15.991,0.2118,-0.8208,1.3294,1.577
16.009,-0.0174,0.7951,-1.5724,1.762
16.013,0.2276,0.7329,-0.4914,0.911
16.014,0.0853,0.4099,-0.5357,0.68
16.017,-0.0737,-0.4601,-0.8218,0.945
16.028,0.1449,-0.4812,0.6662,0.834
16.038,0.3778,0.8759,-1.3534,1.656
16.121,0.4555,0.2734,-0.0617,0.535
16.121,0.4695,0.0167,-0.9535,1.063
16.122,0.5653,-0.4265,-0.3634,0.796
16.122,-0.4047,-0.2985,-0.1492,0.525
16.122,0.0969,0.4094,-0.3624,0.555
16.123,0.0638,0.4724,0.5809,0.751
16.123,0.2479,-0.2195,0.32,0.46
16.124,0.1333,-0.6365,-0.02,0.651
16.124,-0.0511,-0.0172,-0.7491,0.751
16.133,0.4403,0.8622,0.3079,1.016
16.154,0.4574,0.3896,0.6119,0.858
16.159,0.1414,0.1636,-1.8038,1.817
16.161,-0.4041,-0.9593,-0.9695,1.422
16.227,0.1356,-0.5794,-0.8426,1.032
16.23,0.2786,-0.2695,1.4833,1.533
16.231,-0.4189,0.7149,-0.9373,1.251
16.233,0.0962,0.3902,0.17,0.436
16.233,-0.4006,-0.6911,-0.0873,0.804
16.234,-0.4279,-0.3123,-0.0849,0.536
16.236,0.0968,-0.5085,1.7442,1.819
16.244,0.1263,-0.0152,-0.5638,0.578
16.252,0.4728,-0.142,0.6261,0.797
16.266,-0.0131,-0.891,-1.1552,1.459
16.272,0.1783,-0.4007,0.2046,0.484
16.329,0.1268,0.268,0.5445,0.62
16.331,0.6789,0.9123,0.299,1.176
16.333,0.3851,0.491,0.1757,0.648
16.333,-0.22,-0.5299,-0.0769,0.579
16.334,-0.0908,-0.1015,-0.5689,0.585
16.334,0.1558,0.6021,0.0248,0.622
16.344,0.5718,0.4729,0.4282,0.857
16.353,-0.3393,-0.1008,-0.5426,0.648
16.375,-0.8292,-0.8314,-0.9963,1.54
16.378,-0.6715,-0.7624,-1.2154,1.584
16.435,-0.3877,0.2817,0.0978,0.489
16.438,0.8543,0.3987,0.5922,1.113
16.447,-0.6885,-0.3889,0.4282,0.899
16.449,-0.6168,-0.9323,-1.0202,1.513
16.45,-0.6912,-0.8909,-0.5533,1.256
16.453,-0.0055,0.2838,0.0261,0.285
16.454,0.9076,0.4202,1.7847,2.046
16.455,-0.3616,-0.3855,-1.2464,1.354
16.463,-0.6109,-1.0065,-0.3666,1.233
16.472,0.0431,-0.7398,-0.4994,0.894
16.488,-0.0209,0.1388,1.2963,1.304
16.579,0.4034,0.1469,0.0621,0.434
16.581,-0.1501,-0.3937,0.2356,0.483
16.583,-0.7935,-0.8522,0.244,1.19
16.583,-0.46,-0.3404,-0.0229,0.573
16.584,0.4027,0.9951,0.1855,1.089
16.586,0.5967,0.9215,0.7458,1.327
16.588,-0.0096,0.0535,0.079,0.096
16.589,0.4931,-0.1269,0.9193,1.051
16.592,-0.7424,-0.7223,-2.0543,2.301
16.594,-0.9295,-0.3307,-1.2486,1.591
16.596,0.0805,0.7102,-0.3723,0.806
16.602,0.1598,0.2539,0.0623,0.306
16.62,0.1316,-0.6187,1.3073,1.452
16.623,-0.29,-0.2808,-0.9887,1.068
16.689,0.3433,0.5358,-0.8163,1.035
16.693,0.1852,0.3632,0.1414,0.432
16.695,0.6671,-0.24,0.971,1.202
16.698,0.0335,-0.2301,-0.1639,0.284
16.702,-0.385,-0.1341,-0.2382,0.472
16.703,-0.1534,0.4924,-0.4009,0.653
16.705,0.3341,0.9156,0.3497,1.036
16.708,0.3891,-0.0488,0.2467,0.463
16.718,-0.1168,-0.6031,-1.288,1.427
16.721,-0.5572,-0.8064,-0.7865,1.257
16.789,0.1795,0.6259,-0.2765,0.707
16.79,0.5184,0.8835,0.2347,1.051
16.791,-0.2522,-0.2947,0.0946,0.399
16.791,-0.7506,-0.777,-0.4297,1.163
16.792,0.0831,-0.0865,0.2383,0.267
16.792,-0.1781,0.4317,-0.5722,0.739
16.801,-0.1205,1.0096,-0.6703,1.218
16.804,-0.0144,0.3835,0.0576,0.388
16.868,0.1334,-0.4447,0.5987,0.758
16.87,0.1927,-0.208,0.3988,0.489
16.872,0.1844,0.6378,-0.2165,0.698
16.873,0.2667,0.8255,0.0529,0.869
16.874,0.4316,0.7215,0.1834,0.861
16.877,0.0055,-0.2439,-0.5576,0.609
16.878,0.3508,0.1537,1.3529,1.406
16.883,-0.016,0.6059,-0.7852,0.992
16.902,0.3937,0.7152,-0.6368,1.035
16.904,0.0979,0.4183,-0.6403,0.771
16.969,0.1414,-0.4108,0.1929,0.475
16.971,0.092,0.4382,-0.2501,0.513
16.973,0.3889,0.8656,-0.3997,1.03
16.973,0.5377,0.9786,-0.4643,1.209
16.976,0.2606,-0.2209,0.2672,0.434
16.978,-0.3995,-0.8679,-0.5001,1.078
16.98,-0.5379,-0.6371,-0.5515,1
16.99,0.0571,-0.3486,0.217,0.415
16.994,-0.0557,0.0832,0.029,0.104
17.002,-0.9213,-0.6658,-0.3947,1.203
17.013,-0.3269,-0.6247,-0.8221,1.083
17.021,-0.1729,-0.4566,1.6798,1.749
17.097,0.815,0.5295,-0.2464,1.003
17.098,0.6553,0.4097,0.8202,1.127
17.098,0.1914,0.0032,-0.3613,0.409
17.099,-0.2504,-0.5229,-0.5097,0.772
17.099,0.8261,0.3531,0.5604,1.059
17.1,0.7065,0.5143,2.0555,2.234
17.1,0.6982,0.5136,2.0555,2.231
17.102,0.0118,-0.3143,-0.4261,0.53
17.114,0.1517,-0.502,-0.1652,0.55
17.123,0.0231,0.0955,0.4214,0.433
17.146,-0.2222,0.3407,-0.6285,0.749
17.149,0.1818,0.2375,0.5446,0.621
17.153,-0.1409,-0.5457,0.0036,0.564
17.222,-0.6852,-0.9688,-0.4274,1.261
17.227,-0.3037,-0.6974,-0.5519,0.94
17.233,0.4132,0.1457,-0.3221,0.544
17.236,0.4251,0.3871,-0.0313,0.576
17.238,0.3954,0.6984,-0.1498,0.816
17.239,-0.4001,-0.7077,-0.309,0.87
17.241,-0.6711,-0.8299,-0.7508,1.305
17.242,0.1543,-0.3348,0.985,1.052
17.243,0.075,-0.1266,-0.8251,0.838
17.256,0.1498,-0.7247,-1.3698,1.557
17.324,-0.5302,-0.8875,-0.2745,1.07
17.325,-0.8061,-0.2417,-0.7881,1.153
17.326,-0.3655,0.3393,-0.2183,0.544
17.327,-0.0788,0.2126,1.344,1.363
17.327,-0.046,-0.1979,-1.5051,1.519
17.328,-0.5308,-0.9416,-0.2721,1.115
17.329,-0.2733,-0.3281,-0.8275,0.931
17.399,0.0993,1.0113,0.0991,1.021
17.402,0.2587,0.5473,0.1099,0.615
17.403,-0.3505,-0.2434,-0.0217,0.427
17.404,-0.5026,-0.6746,0.207,0.866
17.406,-0.2673,-0.4807,-0.2539,0.606
17.41,0.8101,0.8278,0.2813,1.192
17.412,0.6509,0.7146,0.4872,1.082
17.414,0.1133,0.1874,0.6751,0.71
17.427,-0.1993,-0.0971,-0.346,0.411
17.43,-0.1531,0.2105,-0.3065,0.402
17.433,-0.5171,0.2676,-0.9314,1.098
17.442,0.9197,0.4377,-0.7973,1.293
17.497,0.4203,-0.5712,1.3395,1.516
17.499,-0.5016,-0.1594,-1.7826,1.859
17.5,-0.8019,-0.3657,-1.6354,1.858
17.502,-0.4223,0.2973,-0.4286,0.671
17.503,0.2317,0.8074,-0.9517,1.269
17.504,0.9422,-0.0105,1.2857,1.594
17.519,-0.4929,-0.1263,-1.7969,1.868
17.523,-0.5162,-0.3639,-1.0283,1.207
17.587,-0.3275,0.1733,-1.0941,1.155
17.589,0.5797,0.6248,-0.2644,0.892
17.589,0.0932,-0.2311,0.4706,0.532
17.59,-0.6462,-0.4716,-1.4903,1.691
17.592,-0.2558,-0.1737,-0.7313,0.794
17.594,0.1032,0.3239,-0.0573,0.345
17.598,0.6457,0.7483,0.1618,1.002
17.614,0.5198,0.4776,0.5509,0.895
17.616,-0.0595,0.0844,-0.092,0.138
17.62,0.2573,0.2474,0.4,0.536
17.691,-0.1627,0.4508,-1.0664,1.169
17.692,0.3807,0.702,-0.6618,1.037
17.693,0.6531,-0.1357,-1.0221,1.22
17.693,0.1727,-0.1512,0.2755,0.359
17.694,-0.1321,0.7466,-1.6315,1.799
17.695,-0.3426,0.4712,-0.7085,0.917
17.695,-0.1356,0.6942,-0.2331,0.745
17.703,0.0313,-0.2312,-0.3671,0.435
17.724,0.6194,-1.135,1.3018,1.835
17.727,-0.2889,-0.5361,-1.0722,1.233
17.794,0.5808,0.4994,0.5559,0.946
17.799,0.48,0.5665,-0.1253,0.753
17.802,0.4551,-0.4705,1.2981,1.454
17.804,-0.5159,-0.5137,-0.2834,0.781
17.805,0.3606,0.1975,-0.779,0.881
17.808,-0.3058,0.1669,-0.0213,0.349
17.809,-0.0138,0.0072,-0.2799,0.28
17.814,-0.2866,-0.4749,-0.5815,0.804
17.816,-0.4591,-0.5574,-0.7671,1.054
17.829,0.2858,-0.4098,0.5018,0.708
17.832,-0.5087,0.2009,0.6299,0.834
17.841,0.0843,0.6856,-0.0561,0.693
17.921,0.4323,-0.0507,-0.1099,0.449
17.922,-0.2095,-0.4182,-0.2751,0.543
17.922,0.5976,-0.3622,0.6777,0.973
17.923,-0.0981,0.2656,0.7363,0.789
17.923,0.0465,0.3421,-0.1005,0.36
17.923,0.1518,-0.2167,-0.5805,0.638
17.924,-0.0605,-0.4429,-0.5338,0.696
17.924,0.1559,-1.0072,1.4139,1.743
17.943,0.2024,0.6499,-1.3862,1.544
17.946,0.0617,0.2812,0.8882,0.934
17.952,0.2572,-0.1685,-0.6608,0.729
18.014,0.0845,-0.5891,1.1875,1.328
18.016,0.1831,0.2313,-0.2563,0.391
18.033,-0.0807,0.0986,0.3793,0.4
18.035,0.2503,0.3186,1.0138,1.092
18.037,0.441,-0.0583,0.4607,0.64
18.038,-0.206,-0.4474,-0.2169,0.538
18.039,-0.4341,-0.4159,-0.6,0.849
18.041,0.0081,0.3122,-0.2433,0.396
18.043,0.1576,0.1776,0.6881,0.728
18.088,-0.67,-0.5129,-1.2057,1.472
18.088,-0.8878,-1.1529,-0.7712,1.647
18.089,-0.7275,-0.219,-0.1667,0.778
18.089,0.2438,0.2495,0.4176,0.544
18.092,0.0533,-0.4326,1.4842,1.547
18.101,-0.1744,-0.1753,-0.4335,0.499
18.119,0.0883,-0.5232,-0.303,0.611
18.124,-0.0775,0.2799,0.3494,0.454
18.201,0.9878,0.6551,1.422,1.851
18.207,0.2251,0.2516,0.2632,0.428
18.21,-0.2689,-0.7278,0.5229,0.936
18.214,-0.1982,-0.6782,-0.3545,0.791
18.216,-0.1584,0.1121,-0.072,0.207
18.218,0.5713,0.5808,0.6762,1.059
18.22,0.2207,0.198,0.3457,0.455
18.223,-0.0601,0.2483,0.4558,0.523
18.224,-0.2937,-0.5298,0.0584,0.609
18.225,-0.2065,-0.0346,-0.1391,0.251
18.239,0.1166,0.5254,0.0321,0.539
18.241,0.3812,0.3548,0.0608,0.524
18.318,0.2701,-0.1099,0.214,0.362
18.319,-0.6005,-0.3803,-1.7038,1.846
18.319,-0.9581,-0.5262,-1.5098,1.864
18.32,-0.2182,-0.1724,-0.3522,0.449
18.321,-0.0467,0.001,0.754,0.755
18.321,0.3429,-0.311,0.1112,0.476
18.322,-0.3525,-0.5735,-0.7783,1.029
18.323,-0.8985,-0.7108,-0.8847,1.448
18.342,0.3739,0.8801,0.103,0.962
18.346,1.085,0.5166,0.2898,1.236
18.415,0.1192,-0.247,0.9134,0.954
18.417,-0.4982,-0.5562,-0.0299,0.747
18.418,-0.5442,0.0725,-0.6716,0.867
18.419,0.3567,0.6068,0.0599,0.706
18.42,0.6897,0.836,0.9925,1.47
18.422,-0.4227,-0.2221,-0.3675,0.603
18.423,-0.5148,-0.7302,-0.5207,1.034
18.424,-0.5348,-0.5522,-0.4022,0.868
18.438,0.0596,0.3534,-0.2645,0.445
18.441,0.5849,0.489,0.1474,0.777
18.522,-0.4333,-0.2946,-0.1076,0.535
18.525,0.0214,-0.8966,0.1845,0.916
18.53,-0.5761,-0.7286,-0.9923,1.359
18.534,-0.46,0.4148,-0.1614,0.64
18.536,0.2759,0.6227,-0.1051,0.689
18.538,-0.3173,-0.2716,1.0669,1.146
18.54,0.6353,-0.1575,0.3965,0.765
18.543,0.1809,-0.5203,-0.3936,0.677
18.544,-0.5193,0.1799,-0.9598,1.106
18.548,0.3684,0.9727,-0.2618,1.073
18.562,1.0973,0.3849,-0.5611,1.291
18.564,0.6668,-0.1112,1.5745,1.713
18.633,-0.1613,0.3864,-1.3897,1.451
18.633,-0.2783,0.8471,-0.5134,1.029
18.634,0.4022,0.9418,-0.1591,1.036
18.634,0.2367,-0.3125,0.1521,0.421
18.635,-0.3795,-0.5941,-0.6296,0.945
18.635,-0.7733,-0.6941,-0.7793,1.299
18.636,0.0375,0.2711,-0.3136,0.416
18.641,0.1424,0.3431,0.0767,0.379
18.717,0.0401,-0.1464,0.1617,0.222
18.72,-0.3849,-0.7493,-0.0155,0.843
18.723,-0.3526,-0.2678,-0.0801,0.45
18.725,0.3929,0.57,0.2922,0.751
18.727,-0.0281,0.1235,-0.6571,0.669
18.729,0.0824,0.6357,-0.0166,0.641
18.732,0.7518,-0.0593,0.2132,0.784
18.734,0.2998,0.1655,0.0001,0.342
18.736,0.1404,0.7431,-0.5614,0.942
18.751,0.0786,0.4093,0.589,0.722
18.759,0.1579,0.4527,-0.1148,0.493
18.82,-0.2095,-0.471,0.194,0.551
18.822,0.4131,0.1936,1.3636,1.438
18.823,0.1612,0.8491,-1.3766,1.625
18.824,0.2895,0.6354,0.0862,0.704
18.825,-0.1345,-0.2068,-0.8989,0.932
18.826,0.1484,-0.3896,-0.8463,0.943
18.827,-0.3796,-0.0693,-0.6284,0.737
18.839,0.046,0.5795,-0.3411,0.674
18.842,0.3547,0.7276,0.1282,0.82
18.917,0.4048,0.0442,0.0469,0.41
18.92,0.1126,-0.81,-0.0824,0.822
18.922,-0.0315,-0.0158,-0.602,0.603
18.924,0.1747,0.2613,0.5257,0.612
18.926,0.2746,0.7078,0.291,0.813
18.928,0.231,-0.2129,-0.0214,0.315
18.931,-0.6446,-0.6891,-0.4799,1.059
18.933,0.3608,-0.2531,0.6238,0.764
18.935,0.6475,0.0172,0.9841,1.178
18.95,0.1222,0.954,-1.7908,2.033
18.955,-0.0047,0.4593,-0.5638,0.727
18.961,-0.8295,-0.7944,-0.4703,1.241
19.024,-0.0605,0.0633,-0.8247,0.829
19.041,0.7372,0.444,1.5791,1.798
19.043,-0.3251,0.6089,-0.9851,1.203
19.045,-0.4833,-0.8996,-0.3877,1.092
19.049,-0.1013,-0.774,-1.07,1.325
19.05,0.0881,-0.7404,0.6921,1.017
19.051,-0.1934,0.199,0.4646,0.541
19.053,0.384,0.7106,0.0982,0.814
19.055,-0.2471,-0.4523,0.0551,0.518
19.067,-0.5221,-1.0064,-0.0227,1.134
19.073,0.0208,0.0346,-0.316,0.319
19.154,0.2746,0.4896,-0.5195,0.765
19.154,0.4425,0.7006,0.3496,0.899
19.155,0.2372,0.4465,0.4573,0.682
19.155,-0.3519,-0.2784,-1.2677,1.345
19.156,-0.6608,-0.5257,-0.8966,1.232
19.157,0.7486,-0.2701,-0.2142,0.824
19.157,0.3962,0.3081,0.9816,1.102
19.158,-0.2253,0.082,-0.9086,0.94
19.162,-0.6292,-0.8302,-0.747,1.282
19.24,-0.7729,-0.4221,-0.2693,0.921
19.243,-0.6392,-0.2889,-0.2023,0.73
19.245,0.2525,-0.7917,1.5072,1.721
19.247,-0.5266,-0.4794,-0.7901,1.064
19.251,-0.0624,-0.7863,0.4549,0.911
19.253,-0.2546,-0.5964,-0.3351,0.73
19.256,0.192,0.6762,1.5347,1.688
19.257,0.0165,0.0767,0.3089,0.319
19.259,0.0581,-0.1052,0.4322,0.449
19.275,-0.1344,-0.5132,0.51,0.736
19.278,-0.267,-0.6734,-0.134,0.737
19.35,0.5552,0.8443,-0.1483,1.021
19.352,0.7793,0.9307,0.2682,1.243
19.354,0.3749,0.0401,1.5204,1.566
19.356,-0.3763,0.2484,-0.5506,0.712
19.358,-0.6433,-0.0558,-1.561,1.689
19.361,-0.1148,0.3574,-0.7518,0.84
19.362,0.3291,0.6009,-0.4118,0.799
19.365,0.8797,-0.0961,0.4909,1.012
19.367,-0.2213,-0.4483,0.3771,0.626
19.422,-0.5897,-0.1711,-1.0152,1.186
19.424,-0.449,0.3809,-0.2645,0.645
19.425,0.1507,0.5455,-0.0957,0.574
19.426,0.1236,-0.9166,1.7359,1.967
19.427,-0.4891,-0.2928,-2.594,2.656
19.428,-0.8012,-0.4583,-0.808,1.227
19.444,-0.4674,-0.1176,-0.5852,0.758
19.447,0.2118,0.9271,0.448,1.051
19.526,0.5339,0.4199,0.2865,0.737
19.53,-0.4332,-0.4643,-0.1241,0.647
19.531,0.3484,0.1131,-0.1397,0.392
19.536,0.4147,0.8889,0.5008,1.101
19.538,0.6422,0.9658,0.3907,1.224
19.539,0.2601,-0.0075,0.5583,0.616
19.542,-0.6516,-0.5752,-0.2378,0.901
19.543,-0.1575,0.0027,0.7474,0.764
19.544,-0.0747,0.4385,-0.8938,0.998
19.545,0.3578,0.5294,-0.3396,0.724
19.56,0.1295,0.3828,-0.3814,0.556
19.562,0.6622,-0.3957,0.5128,0.926
19.634,-0.3631,-0.2664,0.8396,0.953
19.634,-0.2863,0.7239,-0.1696,0.797
19.635,0.0113,0.2798,0.2292,0.362
19.635,0.3368,0.451,-0.0126,0.563
19.636,1.1363,-0.7868,1.0109,1.712
19.636,-0.1781,-0.1339,0.1968,0.297
19.637,0.1663,0.1091,0.423,0.467
19.641,-0.0181,0.7622,0.0794,0.767
19.718,0.2166,-0.2246,0.1045,0.329
19.721,0.1051,-0.4806,0.0662,0.496
19.723,0.2815,-0.0623,-1.3464,1.377
19.725,0.1288,0.5533,-0.7982,0.98
19.727,0.522,0.4712,-0.7144,1.002
19.729,-0.2472,-0.6898,-0.3026,0.793
19.731,-0.8258,-0.7339,-0.7971,1.362
19.734,-0.0546,-0.1428,-0.6881,0.705
19.736,0.4009,0.211,0.8824,0.992
19.748,0.0077,0.7182,-0.5828,0.925
19.833,-0.1208,-0.3421,-0.8665,0.939
19.839,0.2215,-0.5145,-0.6594,0.865
19.843,0.2437,-0.196,0.6621,0.732
19.844,0.3702,0.0678,0.522,0.644
19.845,-0.211,-0.1511,-0.1281,0.289
19.847,0.2188,-0.1331,-0.2729,0.374
19.853,0.2062,-0.3559,-0.2035,0.459
19.855,0.7789,-0.0254,0.1233,0.789
19.857,0.5543,0.7524,1.0306,1.391
19.858,0.3567,0.6413,0.8402,1.116
19.859,0.1764,0.707,-0.1702,0.748
19.87,0.531,-0.1629,-0.0828,0.562
19.873,0.249,-0.146,0.5301,0.604
19.881,0.1018,0.4389,-0.9412,1.043
19.951,0.4024,0.0868,0.9598,1.044
19.951,0.2331,-0.2049,0.044,0.313
19.952,-0.4314,-0.7686,-0.4109,0.972
19.952,-0.6835,-0.8025,-0.6467,1.237
19.953,-0.3827,0.0356,-0.2817,0.476
19.953,-0.1712,-0.6186,0.5707,0.859
19.953,-0.6891,-0.9264,-1.832,2.165
19.962,-0.3288,-0.7633,-0.2064,0.856
20.03,-0.6267,-0.4911,-0.4016,0.892
20.049,-0.347,0.1526,0.6925,0.789
20.054,1.1141,0.1831,0.0509,1.13
20.057,-0.0257,-0.5088,-0.5142,0.724
20.059,-0.805,-0.7328,-0.3334,1.138
20.062,-0.3795,0.4082,-1.2169,1.338
20.064,0.905,0.8095,0.0557,1.215
20.065,0.653,0.711,2.0452,2.262
20.067,-0.1611,0.1655,-1.3007,1.321
20.069,-0.7094,-0.8468,-0.7404,1.33
20.082,-0.3776,-0.0605,-0.2747,0.471
20.083,0.4523,0.6832,0.161,0.835
20.093,-0.1691,0.2268,0.0964,0.299
20.172,-0.1312,0.1003,-0.3429,0.381
20.172,-0.1324,-0.3991,-0.3034,0.519
20.173,-0.3637,0.0981,-0.374,0.531
20.173,0.3652,0.4977,0.2245,0.657
20.174,-0.0691,-0.0354,0.1443,0.164
20.174,0.0752,-0.2005,-0.3273,0.391
20.175,0.2323,-0.6798,-0.2351,0.756
20.175,-0.6909,-0.4942,-0.5416,1.007
20.181,-0.258,0.4867,-0.8026,0.973
20.256,0.3631,0.4132,0.2665,0.611
20.259,0.2535,-0.1235,0.5382,0.608
20.262,-0.5162,-0.6131,-1.6225,1.81
20.265,-0.8572,-0.171,-0.9258,1.273
20.269,-0.5804,0.4823,-0.0267,0.755
20.27,0.2336,0.8514,-0.2804,0.926
20.273,0.2471,-0.0154,1.1849,1.211
20.274,-0.1386,-0.4701,-1.4703,1.55
20.277,-0.606,-0.4478,-0.1343,0.765
20.296,-0.1411,0.3265,-0.5628,0.666
20.298,0.5176,0.6974,0.1089,0.875
20.377,-0.4062,-0.3062,-0.0312,0.51
20.38,-0.5015,-0.4318,-1.1863,1.358
20.382,-0.7759,-0.222,-1.1001,1.364
20.385,-0.0043,0.32,-0.6295,0.706
20.387,0.7018,0.5122,0.1822,0.888
20.389,-0.0491,-0.1261,-0.1937,0.236
20.39,-0.0536,-0.3317,0.1236,0.358
20.392,0.1186,0.2982,0.211,0.384
20.394,0.5644,0.4533,0.144,0.738
20.395,0.7681,1.0969,0.3283,1.379
20.471,1.6458,0.1836,0.4348,1.712
20.474,0.1897,-0.1834,0.5196,0.583
20.475,0.0115,0.5632,-2.0232,2.1
20.478,-0.0543,0.3234,-1.208,1.252
20.479,-0.0724,0.5825,-0.2443,0.636
20.482,0.2696,-0.1631,-1.0715,1.117
20.484,0.7935,0.3689,1.3466,1.606
20.487,-0.0331,0.0065,-1.8365,1.837
20.489,-0.3638,0.0992,0.0035,0.377
20.503,0.291,0.8292,-0.4598,0.992
20.505,0.758,-0.374,0.5698,1.019
20.513,-0.4649,-0.6937,-0.164,0.851
20.584,-0.1246,0.1064,-1.4102,1.42
20.586,0.0703,0.2939,-0.5615,0.638
20.587,0.369,-0.1167,0.1017,0.4
20.588,0.1514,-0.3434,-0.5531,0.668
20.589,-0.4807,-0.4594,-0.6752,0.948
20.59,0.1641,0.1093,-0.0719,0.21
20.59,-0.0987,0.7266,0.3159,0.798
20.593,0.0757,0.7088,-0.182,0.736
20.664,0.5743,0.1523,-0.6393,0.873
20.676,0.883,-0.3937,0.2047,0.988
20.678,0.6762,0.0893,1.6867,1.819
20.68,-0.0931,0.9314,-0.1904,0.955
20.682,-0.2944,0.3022,0.2754,0.504
20.683,-0.2006,-0.1051,-0.0885,0.243
20.686,0.0167,-0.5849,-0.0872,0.592
20.688,-0.2359,-1.1045,1.6713,2.017
20.69,-0.0587,0.4845,-0.869,0.997
20.703,0.3921,0.3877,1.3541,1.462
20.705,-0.1226,-0.4359,-0.8486,0.962
20.713,-0.6511,-1.0745,0.6609,1.42
20.78,-0.5681,-0.2148,-0.735,0.953
20.782,0.3657,0.6319,0.1209,0.74
20.783,0.4277,0.5647,0.571,0.91
20.786,0.2175,-0.157,0.2035,0.337
20.788,-0.4645,-0.6935,-0.5734,1.013
20.789,0.0712,0.2895,-0.3352,0.449
20.79,0.2905,0.3799,1.2055,1.297
20.847,-0.4772,0.2766,-0.4274,0.698
20.849,-0.2,-0.7693,-0.7446,1.089
20.852,-0.0073,-0.8867,-0.3579,0.956
20.854,-0.285,-0.0147,0.0921,0.3
20.856,1.0554,0.4532,1.2569,1.703
20.857,-0.1347,0.1578,0.1387,0.25
20.858,-0.6635,-0.737,-0.6346,1.177
20.87,-0.6891,-0.3562,-0.7711,1.094
20.875,-0.8099,-0.2642,0.2249,0.881
20.882,0.1457,-0.1515,1.8984,1.91
20.956,-0.0493,0.3972,-1.414,1.47
20.96,-0.6986,-0.5256,0.7096,1.126
20.964,-0.3387,-0.8939,-0.7197,1.197
20.966,-0.2524,-0.151,0.0752,0.304
20.969,0.4316,0.5631,0.4774,0.855
20.971,0.115,0.2963,0.7001,0.769
20.973,-0.0272,-0.532,0.7036,0.883
20.974,-0.3465,-0.6215,0.2356,0.75
20.977,-0.2422,-0.1071,0.2368,0.355
20.987,0.1854,0.4194,-0.1607,0.486
21.034,0.5379,0.4937,0.147,0.745
21.034,0.1847,-0.2876,0.3409,0.483
21.035,-0.5832,-0.8749,-1.79,2.076
21.035,-0.7927,-0.3939,-1.0717,1.39
21.036,-0.0377,0.509,-0.5162,0.726
21.041,0.5507,0.2197,0.3565,0.692
21.062,-0.7321,-0.4718,0.0787,0.875
21.064,-0.801,-0.4613,-0.8717,1.271
21.138,-0.5635,-0.4228,-0.7352,1.018
21.14,-0.3109,-0.0626,0.0945,0.331
21.141,0.795,-0.009,1.0427,1.311
21.142,0.1381,-0.0433,0.2262,0.269
21.143,-0.3081,-0.7332,-0.4621,0.92
21.144,-0.0716,-0.2504,-0.407,0.483
21.144,0.4532,0.714,0.1533,0.859
21.146,0.7526,0.2008,0.9781,1.25
21.215,-0.3661,-0.2626,-0.4214,0.617
21.225,-0.4383,-0.748,-0.4477,0.976
21.228,-0.1557,-0.7166,-0.1568,0.75
21.232,0.2104,0.4029,0.0814,0.462
21.235,0.4304,0.88,0.7745,1.249
21.237,0.2453,0.3159,0.0287,0.401
21.238,-0.0446,-0.158,1.5825,1.591
21.241,-0.4513,-0.2864,-2.2111,2.275
21.243,-0.2643,0.6176,-1.0655,1.26
21.244,0.3412,0.3888,-0.3197,0.608
21.256,-0.0503,-0.5974,0.4022,0.722
21.261,0.1433,-0.5751,0.2022,0.626
21.336,-0.372,0.2843,-1.0787,1.176
21.337,-0.3323,0.2703,-0.4897,0.651
21.337,0.4118,0.5998,0.0933,0.734
21.338,1.024,-0.029,0.4274,1.11
21.338,-0.3666,-0.5596,0.4788,0.823
21.339,-0.2684,0.1191,-0.6573,0.72
21.34,-0.0633,1.0723,-0.4191,1.153
21.341,0.1984,0.9095,-0.1581,0.944
21.353,0.7156,-0.0095,0.7218,1.016
21.422,-0.5076,-0.1667,-0.6417,0.835
21.425,0.4027,0.3053,-0.2359,0.558
21.427,0.6177,0.7855,0.237,1.027
21.43,0.3795,-0.1227,-0.1198,0.416
21.431,-0.117,-0.0973,0.2681,0.308
21.433,-0.5227,-0.4618,-0.7339,1.012
21.434,-0.2562,-0.4865,0.687,0.88
21.436,-0.3483,0.4345,-0.7842,0.962
21.449,-0.0206,0.052,0.0789,0.097
21.452,-0.027,-0.0551,-0.4059,0.41
21.522,-0.4513,-0.4649,0.729,0.975
21.524,0.6606,-0.1101,0.8595,1.09
21.525,0.4153,0.9568,0.5003,1.157
21.527,-0.1483,0.6485,0.006,0.665
21.528,0.1217,0.9295,-0.4309,1.032
21.53,0.6827,-0.4243,0.0623,0.806
21.532,0.5958,0.6701,1.5946,1.829
21.534,0.1512,1.0174,-1.4233,1.756
21.56,-0.5009,0.4738,0.0492,0.691
21.563,0.0405,0.2203,-0.4092,0.467
21.564,0.0122,-0.4113,-0.4486,0.609
21.633,0.0731,0.0561,-0.8412,0.846
21.634,0.2729,0.2252,-0.8303,0.903
21.634,0.2553,0.6157,-0.4269,0.792
21.634,0.0799,-0.2803,-0.0258,0.293
21.635,-0.8116,-0.8452,-0.3849,1.233
21.635,0.1126,-0.2212,-0.5584,0.611
21.636,0.4731,0.4926,0.2328,0.722
21.643,0.0807,0.2488,0.4459,0.517
21.652,-0.2938,-0.7712,-0.6745,1.066
21.705,-0.3202,-0.5694,-0.4711,0.805
21.707,0.3007,-0.3503,1.1354,1.226
21.708,0.5771,0.4837,0.459,0.882
21.709,0.1061,0.4619,-0.8123,0.941
21.71,-0.4341,-0.6338,-0.0965,0.774
21.712,-0.3239,-0.454,-0.4652,0.726
21.75,0.2353,-0.2358,0.0064,0.333
21.752,0.5243,0.6932,1.0323,1.349
21.755,0.7005,0.9622,-0.2079,1.208
21.759,0.1465,-0.6419,-0.002,0.658
21.764,-0.213,-0.5684,-0.2893,0.672
21.784,0.0002,-0.4446,0.0937,0.454
21.788,-0.2903,0.0516,-0.6258,0.692
21.87,-0.0411,-0.0715,-0.1949,0.212
21.872,0.1437,-0.3148,-0.3278,0.477
21.874,-0.4306,-0.8723,0.1055,0.979
21.876,-0.6367,-0.5496,-0.4332,0.946
21.879,-0.0492,0.1213,-0.6081,0.622
21.883,0.3128,-0.0927,-0.4369,0.545
21.885,0.072,-0.5662,0.4812,0.747
21.886,0.0439,-0.6178,-0.5424,0.823
21.889,-0.5853,-0.3021,-0.6897,0.954
21.89,0.9488,0.2903,0.2344,1.019
21.894,0.0239,0.2522,0.0296,0.255
21.913,0.278,0.2788,-0.8946,0.977
21.915,-0.3747,-0.8366,-1.0598,1.401
21.994,-0.7453,-0.2646,-0.5032,0.937
21.998,0.1635,0.6414,-0.6037,0.896
21.999,0.9678,0.7357,1.5618,1.979
22,-0.1891,-0.0767,-1.765,1.777
22.001,-0.9537,-1.222,0.3743,1.595
22.005,-0.4589,-0.5327,-1.352,1.524
22.019,0.5789,0.798,0.6568,1.185
22.023,0.1824,0.3864,0.1947,0.47
22.024,-0.2076,-0.4558,-0.3452,0.608
22.026,-0.1898,-0.541,0.1037,0.583
22.028,0.1492,-0.0227,0.0127,0.152
22.032,0.6474,0.8226,0.2234,1.07
22.044,0.3962,0.3767,0.0917,0.554
22.052,0.2992,-0.3086,0.5646,0.71
22.135,-0.3956,-0.315,-0.6912,0.856
22.136,-0.3785,0.4024,-0.1669,0.577
22.136,-0.3246,0.542,0.0007,0.632
22.137,0.9884,0.571,0.4113,1.213
22.138,0.3145,-0.1178,1.0614,1.113
22.138,0.2578,-0.087,-1.2095,1.24
22.139,-0.4804,-0.0351,-0.5679,0.745
22.139,-0.6847,0.3133,-0.4853,0.896
22.221,0.2398,0.6168,-0.3117,0.731
22.224,0.0472,-0.7278,1.7761,1.92
22.231,-0.5067,-0.74,-2.0199,2.21
22.241,-0.6574,-0.2834,0.2031,0.744
22.245,-0.3537,0.1147,-0.4182,0.56
22.247,-0.2093,0.3331,0.6161,0.731
22.249,-0.1154,-0.413,-0.132,0.449
22.251,-0.5955,-0.5894,-1.304,1.55
22.252,-0.3315,-0.0083,-0.509,0.608
22.252,0.0279,0.5882,-0.2361,0.634
22.253,0.5051,1.0498,0.025,1.165
22.253,0.5197,0.5484,0.5194,0.917
22.263,-0.1475,-0.2105,0.5877,0.641
22.332,-0.3328,0.1604,-0.103,0.384
22.333,-0.1987,0.6521,-0.8512,1.091
22.334,0.2534,-0.0486,0.7004,0.746
22.334,0.1702,-0.2519,-0.1065,0.322
22.335,0.339,-0.7803,1.1745,1.45
22.335,-0.5515,-0.2611,-1.0594,1.223
22.336,-0.5508,-0.2601,-1.0594,1.222
22.407,-0.1698,0.4337,-0.201,0.507
22.409,-0.4874,-0.4888,-0.6307,0.935
22.41,0.3494,-0.8678,0.831,1.251
22.412,-0.1356,-0.2659,-1.6398,1.667
22.414,-0.0409,0.3659,0.3354,0.498
22.415,0.1589,0.9374,-0.3672,1.019
22.417,0.4727,-0.0447,-0.2451,0.534
22.418,-0.0884,-0.5224,0.0937,0.538
22.421,-0.031,0.1432,-0.7742,0.788
22.432,0.1322,0.3147,-0.0524,0.345
22.451,0.4405,0.056,0.1571,0.471
22.452,0.2347,-0.2908,0.0003,0.374
22.528,-0.58,-0.4766,-0.4726,0.887
22.529,0.4316,0.742,-0.1805,0.877
22.529,0.0176,0.0457,1.4523,1.453
22.53,-0.2286,0.1169,-1.1765,1.204
22.531,-0.3473,-0.583,-0.8233,1.067
22.531,-0.5681,-0.2844,-0.9646,1.155
22.532,0.592,-0.5044,-0.056,0.78
22.533,0.0272,0.268,1.7289,1.75
22.548,-0.0876,0.6702,0.1259,0.687
22.552,0.1753,-0.2558,-0.6629,0.732
22.626,0.181,-0.6104,0.0697,0.641
22.629,0.8159,-0.5362,-0.2176,1
22.63,0.5231,0.5916,-0.0729,0.793
22.631,0.3093,-0.3268,0.3029,0.542
22.632,0.0448,-0.0815,-0.8547,0.86
22.633,-0.0005,-0.4253,-0.2742,0.506
22.634,0.1423,-0.584,0.1711,0.625
22.637,0.2517,0.7337,-0.0541,0.778
22.651,0.4829,0.0381,0.463,0.67
22.654,0.352,-0.6576,-0.1834,0.768
22.73,-0.4722,-0.6975,-0.2913,0.891
22.732,-0.5301,0.4233,-0.6744,0.957
22.733,0.2359,0.248,0.0881,0.353
22.735,0.2891,-0.1666,1.2888,1.331
22.736,-0.8279,-0.5174,-1.2515,1.587
22.737,-0.5131,-1.087,-1.3987,1.844
22.74,-0.4123,-0.248,0.2245,0.531
22.742,0.5444,0.3248,0.5729,0.854
22.744,0.4736,0.0501,0.3298,0.579
22.754,-0.4679,-0.2926,0.2137,0.592
22.841,-0.4693,-0.8114,-0.7056,1.173
22.842,-0.2028,0.3033,-0.052,0.369
22.842,0.8486,0.4854,1.3654,1.679
22.843,0.0914,0.0596,0.774,0.782
22.843,0.2343,0.0505,0.8829,0.915
22.844,-0.3401,-0.5057,-0.3357,0.696
22.844,-0.0835,0.1675,0.6722,0.698
22.845,0.5418,0.742,0.9942,1.354
22.846,0.319,0.6253,-0.3693,0.793
22.853,-0.1524,-0.3008,0.3406,0.479
22.865,-0.4476,-0.5782,0.3023,0.791
22.874,-0.2356,0.1971,-0.4519,0.546
22.943,0.0398,0.6061,-0.1143,0.618
22.945,0.289,0.1429,0.1084,0.34
22.946,0.4344,-0.4223,0.5154,0.795
22.948,-0.3126,-0.6333,-1.2228,1.412
22.949,-0.9581,-0.3089,-0.0221,1.007
22.949,-0.0277,0.5158,0.2676,0.582
22.95,0.0185,0.279,-0.0556,0.285
22.953,0.6642,-0.4699,1.6993,1.884
23.02,0.0689,-0.4442,-1.0085,1.104
23.025,-0.6683,-0.4787,-1.0301,1.318
23.045,-0.2881,0.7252,-0.4195,0.886
23.048,0.1392,0.9583,-0.3884,1.043
23.05,0.4577,-0.0028,1.1966,1.281
23.054,-0.2794,0.3442,-1.1593,1.241
23.057,-0.0014,0.0119,0.0522,0.054
23.058,0.2436,0.5505,-0.4302,0.74
23.061,0.506,0.7702,-0.0938,0.926
23.063,-0.4957,-0.4635,-0.2243,0.715
23.063,-0.4515,-0.8694,-0.7857,1.256
23.073,-0.6076,-0.3462,-0.6421,0.949
23.144,0.1524,0.4606,-0.0459,0.487
23.145,0.0392,-0.0858,0.7514,0.757
23.145,-0.2571,-0.4013,-0.4636,0.665
23.146,0.4666,-0.3691,-0.0877,0.601
23.147,-0.4788,-0.2812,-0.7509,0.934
23.147,-0.4734,0.454,-0.3152,0.728
23.148,0.3339,0.675,0.1984,0.779
23.153,0.675,-0.3796,0.8975,1.185
23.231,0.2075,-0.2228,0.1996,0.364
23.233,0.3058,0.2266,-0.9891,1.06
23.236,-0.5074,0.3008,-0.466,0.752
23.238,0.1822,0.7766,-0.3223,0.86
23.241,0.1963,-0.6149,0.2727,0.701
23.243,-0.0512,-0.1441,0.6689,0.686
23.244,0.3804,0.4143,-0.7844,0.965
23.248,-0.2735,0.6097,0.2558,0.716
23.25,-0.2405,0.774,0.123,0.82
23.253,0.3125,-0.2747,0.4798,0.635
23.266,-0.2536,-0.5661,-0.7987,1.011
23.276,-0.0233,0.0977,-1.4763,1.48
23.357,0.307,0.7273,0.0488,0.791
23.357,0.4006,0.4174,0.177,0.605
23.358,-0.3111,-0.5594,-0.2731,0.696
23.358,-0.047,-0.3697,-0.4814,0.609
23.358,0.0856,-0.2309,-0.3569,0.434
23.359,0.0482,0.5381,0.9826,1.121
23.359,0.4428,0.8102,0.6953,1.156
23.36,0.5162,0.025,0.311,0.603
23.362,1.1055,-0.3241,1.2448,1.696
23.374,0.2931,0.4594,0.0309,0.546
23.396,0.4759,0.8385,-0.1344,0.973
23.398,0.3261,0.3575,-0.2708,0.555
23.403,-0.7152,-0.2287,-0.2457,0.79
23.468,-0.3893,-0.2275,-1.2428,1.322
23.468,0.5005,0.1728,1.5572,1.645
23.469,-0.0418,0.3857,-1.8235,1.864
23.469,-0.0582,0.2578,0.9874,1.022
23.47,0.1005,0.1948,-0.977,1.001
23.47,-0.2857,-0.2514,0.7385,0.831
23.473,0.151,0.1192,-0.1677,0.255
23.538,0.0899,0.6386,0.7912,1.021
23.54,0.5326,0.5992,0.4261,0.908
23.542,0.3167,-0.3468,0.431,0.637
23.543,-0.4267,-0.5816,-0.5387,0.9
23.545,0.3569,0.097,-0.1759,0.41
23.547,0.087,0.3352,0.6884,0.771
23.549,0.053,0.6678,-0.486,0.828
23.558,-0.5941,-0.7627,-0.2561,1
23.561,-0.4119,-0.7654,-0.0322,0.87
23.573,0.443,-0.2346,1.6976,1.77
23.628,0.2969,0.4354,1.2211,1.33
23.628,0.2473,0.7531,-0.146,0.806
23.629,-0.7589,-0.9994,0.1102,1.26
23.629,-0.8477,-0.8436,-0.2202,1.216
23.63,-0.3812,-0.2329,-0.3077,0.542
23.632,-0.0031,-0.1486,1.7561,1.762
23.641,0.452,0.1616,-0.5507,0.731
23.698,-0.618,-0.5628,0.3219,0.896
23.701,-0.532,-0.6706,-0.4622,0.973
23.703,-0.4596,-0.3382,0.1447,0.589
23.704,-0.004,0.318,-0.5616,0.645
23.704,-0.1252,0.0571,0.4882,0.507
23.705,-0.7508,-0.9169,-0.242,1.21
23.713,-0.5013,-0.6177,-0.2803,0.843
23.724,-0.074,0.2689,-0.382,0.473
23.734,0.6871,0.7126,0.1483,1.001
23.741,0.2143,0.1384,0.5194,0.579
23.811,-0.2411,-0.2443,0.0825,0.353
23.814,-0.0891,-0.5762,-1.3109,1.435
23.814,-0.552,-0.528,-0.8153,1.117
23.815,-0.3291,0.4153,-0.1282,0.545
23.816,0.7953,-0.0423,1.3024,1.527
23.817,-0.8446,-0.068,-0.9398,1.265
23.818,-1.1274,-0.6665,-1.3516,1.882
23.821,-0.7727,-0.4256,-0.7972,1.189
23.832,-0.5094,0.4102,0.2564,0.702
23.842,0.2349,-0.3894,1.1317,1.22
23.855,-0.081,-0.1603,-1.3666,1.378
23.929,-0.8577,-0.9938,-0.4136,1.376
23.93,-0.8433,-0.9842,-0.4133,1.36
23.931,0.5966,0.7741,-0.0312,0.978
23.932,0.5551,-0.0145,0.826,0.995
23.933,-0.3255,-0.3473,-0.1496,0.499
23.934,-0.5025,-0.4552,-0.5566,0.877
23.934,-0.5112,-0.2661,0.1523,0.596
23.935,0.6777,0.8301,0.6875,1.273
23.942,0.5996,0.4596,0.7462,1.062
23.988,-0.1418,-0.2114,0.1536,0.297
23.99,-0.1825,-0.6148,0.7103,0.957
23.991,0.3255,0.3801,-0.9836,1.104
24.009,0.4688,1.107,-0.0475,1.203
24.011,0.0407,0.6441,-0.4534,0.789
24.013,0.5929,-0.1539,1.0705,1.233
24.014,-0.4487,-0.3851,0.4994,0.774
24.021,-0.3432,0.3104,-0.5601,0.726
24.036,0.0305,0.5535,-0.4175,0.694
24.041,0.6497,0.8587,0.1943,1.094
24.111,1.1745,-0.087,0.9112,1.489
24.112,0.2926,-0.3084,-0.037,0.427
24.112,0.2363,0.4256,-0.0037,0.487
24.113,0.2547,0.5329,-0.5364,0.798
24.113,0.1767,-0.315,0.5432,0.652
24.115,0.6252,-0.1829,0.5144,0.83
24.116,-0.1848,-0.3317,-1.1485,1.21
24.122,0.0124,0.2187,-0.3286,0.395
24.133,0.2641,0.656,-0.2508,0.75
24.141,0.412,0.4179,-0.4256,0.725
24.157,-0.0021,-0.0285,0.1285,0.132
24.242,0.3781,-0.3096,0.0459,0.491
24.244,0.333,0.2659,1.6607,1.715
24.245,-0.4059,0.7593,-1.4721,1.705
24.247,-0.0698,0.7164,-0.3744,0.811
24.249,0.2129,0.2182,-0.2786,0.413
24.25,0.5978,-0.2094,0.8419,1.054
24.251,0.0425,0.3291,0.2612,0.422
24.252,-0.4415,0.3971,-0.0045,0.594
24.253,0.2253,0.3404,-0.3851,0.561
24.254,-0.0958,-0.5026,-0.1828,0.543
24.315,0.0795,-0.8431,1.0168,1.323
24.317,-0.2328,0.097,-0.8017,0.84
24.318,0.4313,0.9017,0.5331,1.133
24.318,0.3155,1.0732,0.8922,1.431
24.319,0.7558,0.2054,1.4585,1.656
24.32,0.4468,0.2352,0.2279,0.554
24.322,0.6179,0.4753,-0.8507,1.154
24.335,0.2993,0.2379,0.2028,0.433
24.341,0.3812,0.6158,0.2352,0.762
24.41,-0.1847,-0.5657,-0.143,0.612
24.412,-0.2738,-0.0721,-0.4949,0.57
24.413,0.0512,0.0316,-0.5296,0.533
24.414,0.1371,0.0399,1.2924,1.3
24.414,-0.0374,-0.1294,-0.9929,1.002
24.415,-0.3955,-0.8426,-0.3153,0.983
24.418,-0.7142,-0.5433,-0.1394,0.908
24.423,0.4479,0.1171,1.3127,1.392
24.433,1.2071,0.4648,1.7819,2.202
24.441,-0.1682,-0.1584,-0.2077,0.311
24.456,-0.3247,-0.5946,-0.0605,0.68
24.515,0.2812,-0.4646,-0.6914,0.879
24.515,0.6368,-0.311,-0.0306,0.709
24.515,0.3369,0.7666,1.7314,1.923
24.516,0.3367,0.6861,0.0817,0.769
24.516,-0.4225,-0.533,-0.3516,0.766
24.516,0.1265,-0.5052,-0.2655,0.585
24.521,-0.0062,-0.0667,-0.1398,0.155
24.561,0.3361,0.5891,0.5341,0.863
24.563,-0.0036,-0.2721,0.5868,0.647
24.563,0.4153,-0.1319,0.0373,0.437
24.564,0.187,-0.8327,-0.177,0.872
24.573,-0.5978,-0.8377,-0.4584,1.127
24.582,0.6778,0.1581,-0.0024,0.696
24.594,0.2288,0.0311,0.1268,0.263
24.603,-0.2365,-0.6107,0.0454,0.656
24.662,-1.3277,-0.766,-1.0201,1.841
24.664,-0.5983,0.0747,-0.9616,1.135
24.665,0.6766,0.6811,1.4601,1.747
24.666,0.6229,0.4766,0.6413,1.013
24.667,0.2261,-0.1912,-0.1117,0.316
24.668,-0.4115,-0.9345,-0.5104,1.142
24.673,0.0062,0.1213,0.0139,0.122
24.682,0.823,0.6756,0.6867,1.267
24.694,0.2592,0.3306,1.0697,1.149
24.703,0.0993,-0.0202,0.4161,0.428
24.755,-0.6679,-0.7113,0.2055,0.997
24.757,-0.4678,0.2129,0.1815,0.545
24.758,0.0867,0.5684,0.986,1.141
24.759,0.2423,-0.2106,-0.0998,0.336
24.762,-0.6551,-0.4583,-0.6684,1.042
24.763,-0.4585,-0.7777,-0.9162,1.286
24.773,-0.3366,-0.0005,-0.4829,0.589
24.794,0.2355,0.6153,-0.1609,0.678
24.796,0.3402,0.3919,0.5107,0.728
24.802,0.3395,-0.1725,-0.4087,0.559
24.862,-0.4113,-0.5773,0.0821,0.714
24.864,-0.0718,0.5636,-0.1106,0.579
24.865,-0.2533,0.6029,0.2186,0.69
24.865,0.6393,0.3713,1.8455,1.988
24.869,0.0428,0.249,-0.6732,0.719
24.871,-0.1184,-0.6001,-0.5618,0.831
24.873,-0.7576,-0.733,-1.2202,1.613
24.882,-0.5692,0.1778,-0.8312,1.023
24.893,-0.2968,0.5582,-0.6097,0.878
24.905,0.1376,-0.186,2.121,2.134
24.987,-0.0352,0.48,-1.7373,1.803
24.989,-1.0861,-0.3583,-0.3343,1.191
24.989,-0.4128,0.2161,-0.3522,0.584
24.99,-0.1275,0.3504,1.1192,1.18
24.991,-0.5964,-0.8001,-0.2036,1.019
24.991,-0.6306,-0.3464,-0.5459,0.903
24.992,-0.0584,-0.1579,-0.6523,0.674
25.003,0.4074,0.5258,0.1235,0.677
25.004,0.1988,-0.0806,0.3689,0.427
25.005,-0.3664,-0.6069,0.0241,0.709
25.014,0.1787,-0.5151,0.1882,0.577
25.024,0.2825,0.355,-0.9515,1.054
25.066,0.052,0.9728,0.2851,1.015
25.067,-0.0626,0.2628,0.4922,0.562
25.067,0.7363,-0.3543,0.7269,1.094
25.067,-0.0696,-0.2926,0.6838,0.747
25.072,0.0086,0.4327,-1.0844,1.168
25.08,-0.1188,0.5364,-0.1866,0.58
25.092,0.0789,0.7654,0.029,0.77
25.101,-0.1166,-0.4276,-0.5444,0.702
25.141,0.1593,-0.5239,0.8503,1.011
25.142,0.0511,0.1219,-2.2694,2.273
25.142,-0.5484,-0.189,-0.5408,0.793
25.143,-0.084,0.1333,-1.1082,1.119
25.153,0.0308,-0.6342,-0.4509,0.779
25.16,-0.5607,-0.636,-0.7658,1.142
25.174,0.3443,0.4669,0.1308,0.595
25.206,0.5324,0.6595,-0.3911,0.933
25.207,0.4451,0.1518,-0.0882,0.478
25.207,0.3292,-0.3257,0.3679,0.591
25.216,-0.3478,-0.4375,-0.2642,0.618
25.22,0.5204,0.4777,-0.2499,0.749
25.232,0.2775,1.0759,0.9891,1.488
25.24,0.1602,0.3521,-0.135,0.41
25.252,-0.09,-0.6381,0.1356,0.658
25.261,0.0614,-0.4525,-0.6701,0.811
25.274,0.468,-0.5948,1.3411,1.54
25.311,-0.0558,0.6592,-1.4734,1.615
25.312,-0.1198,0.542,-0.4104,0.69
25.312,-0.5896,-0.1255,-0.1278,0.616
25.312,-0.6556,-0.7168,0.0518,0.973
25.321,0.0491,-0.2367,1.444,1.464
25.332,-0.0806,0.4236,-1.1945,1.27
25.34,-0.2886,-0.4621,0.6922,0.881
25.353,-0.2442,-0.7853,-0.8221,1.163
25.36,-0.0312,-0.3297,-0.1075,0.348
25.373,0.0072,0.103,0.4803,0.491
25.408,0.0378,0.9084,0.1511,0.922
25.408,0.4457,0.6488,0.4216,0.893
25.409,0.1066,-0.4103,-0.0273,0.425
25.418,-0.2412,-0.5408,-0.6617,0.888
25.421,0.5009,0.3904,-0.3936,0.747
25.432,0.4557,0.8307,0.2816,0.988
25.441,0.2269,0.5765,0.6192,0.876
25.452,-0.1869,-0.3908,-0.9921,1.083
25.46,-0.3811,-0.7962,-1.1501,1.45
25.473,-0.307,-0.22,0.466,0.6
25.505,0.7866,0.2442,1.7217,1.909
25.506,-0.3891,0.2995,-0.2942,0.572
25.506,-0.6227,-0.6729,-0.8114,1.224
25.516,-0.7798,-1.1555,-0.8425,1.629
25.52,-0.3032,0.1311,-0.3576,0.487
25.532,0.4404,-0.2077,1.5302,1.606
25.54,0.4672,0.7912,-0.3684,0.99
25.552,0.2172,-0.0119,0.0338,0.22
25.56,-0.3248,-0.7728,-1.0137,1.315
25.572,-0.1051,-0.4424,0.7987,0.919
25.639,0.2062,0.2875,0.6431,0.734
25.644,-0.0477,0.1234,-0.2045,0.244
25.647,-0.2254,-0.7601,-0.2679,0.837
25.65,-0.2748,-0.6668,0.0696,0.725
25.652,-0.119,0.1289,-0.3111,0.357
25.654,-0.1213,0.6296,0.1881,0.668
25.655,0.7587,0.3958,-0.0765,0.859
25.657,0.2051,-0.021,1.0823,1.102
25.662,-0.8159,-0.1025,-2.7879,2.907
25.68,-0.9321,-0.4161,-1.7847,2.056
25.776,-0.4506,0.4127,-0.5409,0.816
25.779,0.4056,0.5154,0.1128,0.665
25.782,-0.7844,-0.1167,-0.9574,1.243
25.786,-0.715,-0.5487,-1.3451,1.619
25.788,-0.6199,-0.4782,-0.5848,0.977
25.79,0.3827,0.7383,0.3204,0.891
25.791,0.2804,-0.493,1.2303,1.355
25.793,-0.1985,-0.5706,-0.885,1.072
25.794,-0.5161,-0.7052,-0.7198,1.132
25.796,-0.5216,-0.2149,-0.4731,0.736
25.798,0.3016,0.5275,0.1196,0.619
25.799,0.6451,0.1994,0.2286,0.713
25.805,-0.1236,-0.309,-0.4059,0.525
25.814,-0.4578,-0.7711,-0.4992,1.026
25.827,-0.081,0.1027,-0.5112,0.528
25.93,0.2576,0.7944,-0.0072,0.835
25.932,0.202,0.2006,0.7674,0.818
25.933,-0.4495,-0.496,-0.2059,0.7
25.934,-0.0485,-0.864,0.2694,0.906
25.935,-0.0256,-0.542,-1.045,1.178
25.937,0.2082,0.5803,-0.486,0.785
25.94,0.0649,0.4764,-0.164,0.508
25.942,0.0553,-0.1113,0.0791,0.147
25.944,0.4683,-0.5397,0.7422,1.03
25.944,-0.2932,-0.5762,-1.3551,1.501
25.947,-0.2905,-0.5728,-1.3551,1.5
25.949,0.6854,0.6821,-0.4489,1.066
25.954,1.3236,0.4785,0.2813,1.435
25.962,0.43,0.1356,0.6546,0.795
25.977,0.0422,0.9441,-0.9054,1.309
25.991,0.2091,0.3122,-0.2267,0.439
26.053,0.5049,0.0586,0.0821,0.515
26.054,0.8916,-0.1563,-0.0425,0.906
26.055,-0.3287,-0.6592,-0.6221,0.964
26.055,0.565,0.4835,-0.2582,0.787
26.056,0.5874,1.0632,0.1427,1.223
26.056,0.4503,0.1122,-0.3996,0.612
26.057,-0.5703,-0.7012,-0.3219,0.959
26.062,-0.4636,-0.8207,-0.8295,1.256
26.141,0.3447,0.0075,0.613,0.703
26.144,-0.6595,-0.0788,-0.5482,0.861
26.146,-0.0812,0.3985,-0.419,0.584
26.149,0.0459,0.5539,0.0778,0.561
26.152,0.1956,-0.519,1.4928,1.593
26.154,0.4969,0.6377,0.5124,0.957
26.156,0.5997,0.9089,0.8212,1.364
26.158,0.0853,0.1475,0.2933,0.339
26.159,0.2747,-0.1894,-0.4452,0.556
26.175,0.3411,-0.5834,0.3161,0.746
26.178,0.2421,0.3427,0.4705,0.63
26.182,0.759,0.7646,0.3963,1.148
26.249,0.2728,0.6632,0.2849,0.772
26.251,0.4252,0.2441,-0.0382,0.492
26.253,-0.1762,-0.6734,0.6609,0.96
26.255,-0.1544,0.056,-0.5685,0.592
26.257,0.5005,0.6459,0.3653,0.895
26.258,0.2978,0.4366,-0.4344,0.684
26.261,-0.393,-0.864,-0.0429,0.95
26.263,-0.8044,-0.782,-0.8832,1.428
26.275,-0.211,-0.1698,-0.7803,0.826
26.362,0.5513,0.5202,-0.1051,0.765
26.363,0.0541,0.4772,0.1834,0.514
26.363,-0.5546,-0.6193,0.2899,0.88
26.364,-0.5119,-0.5014,-0.1003,0.724
26.365,-0.2689,-0.5807,1.8629,1.97
26.365,0.521,0.306,-0.2716,0.662
26.366,0.204,0.1822,0.1306,0.303
26.367,-0.3084,-0.8446,-0.2561,0.935
26.367,-0.3759,-0.2371,-0.8008,0.916
26.445,-0.5318,-0.1723,-0.6368,0.847
26.449,-0.1366,-0.0393,1.5119,1.519
26.45,0.1168,0.2052,-2.0662,2.08
26.452,-1.2058,-0.8643,-0.4178,1.541
26.456,-0.7731,-0.5761,-0.6094,1.141
26.458,-0.4675,0.0647,0.0897,0.48
26.459,0.1707,0.4117,-0.0216,0.446
26.46,-0.5115,-0.3159,0.2119,0.637
26.462,0.7276,0.0828,0.2407,0.771
26.463,-0.3729,-0.3863,0.4573,0.705
26.478,0.2819,0.1712,-0.3662,0.493
26.562,0.5012,0.2877,0.2682,0.637
26.565,0.2485,-0.2459,-0.3926,0.526
26.568,0.0839,-0.3707,-0.8116,0.896
26.57,-0.7799,-1.0979,-0.3364,1.388
26.572,-0.5694,-0.2568,-0.82,1.031
26.574,0.704,0.3571,0.8595,1.167
26.575,0.1453,-0.138,0.1592,0.256
26.577,-0.149,-0.3811,-1.0679,1.144
26.578,-1.1529,-1.045,-0.564,1.655
26.579,-0.7746,-0.288,-0.8632,1.195
26.645,0.5341,0.694,-0.0467,0.877
26.649,0.3512,0.0664,1.1756,1.229
26.651,-0.0836,-0.2195,-1.3431,1.364
26.657,-0.0726,-0.4908,-0.7925,0.935
26.659,-0.3785,-1.0924,-0.5805,1.294
26.66,0.2323,0.6433,0.0803,0.689
26.663,0.1374,-0.0367,-0.1041,0.176
26.664,-0.8612,-0.5138,-1.0354,1.441
26.666,-0.7346,-0.8557,-0.5984,1.277
26.681,-0.1615,0.3675,-0.6163,0.735
26.684,0.6658,0.7463,0.2984,1.044
26.758,0.1826,0.3034,0.4349,0.561
26.76,0.0694,0.3426,-0.002,0.35
26.762,0.4396,0.053,0.6708,0.804
26.763,0.2988,0.7799,-0.2319,0.867
26.763,0.0682,0.6707,0.1236,0.685
26.764,0.5462,0.5724,-1.01,1.283
26.766,0.5058,-0.3437,1.2848,1.423
26.768,-0.5995,0.0524,-1.7093,1.812
26.778,-0.3859,0.4275,-1.0401,1.189
26.782,-0.2234,0.7748,-0.4654,0.931
26.861,-0.2855,-0.3897,-0.5276,0.715
26.862,-0.0348,-0.93,0.8874,1.286
26.863,0.0429,0.1681,-2.2012,2.208
26.864,-0.4533,-0.0527,-0.6629,0.805
26.866,-0.1575,0.395,-1.0064,1.093
26.868,0.3734,0.5071,-0.1121,0.64
26.869,-0.3609,-0.7149,0.0699,0.804
26.87,0.3769,0.0526,-1.3666,1.419
26.957,-0.0587,0.2119,-0.7979,0.828
26.963,0.3232,0.5867,-0.3275,0.746
26.971,0.5057,0.2986,0.2603,0.642
26.974,-0.1062,-0.1473,-0.0294,0.184
26.978,0.0399,-0.227,0.1442,0.272
26.98,0.1791,0.542,0.0137,0.571
26.982,0.2458,0.8162,0.1561,0.867
26.985,0.357,0.7781,0.1394,0.867
26.987,1.0794,0.2087,-0.3802,1.163
26.989,0.5302,-0.4257,1.4777,1.627
26.99,0.0768,0.9043,-1.0267,1.37
27.004,0.0013,0.765,-0.1828,0.787
27.006,0.0526,0.2543,-0.2162,0.338
27.01,-0.0991,-0.4835,-0.5214,0.718
27.026,0.1266,-0.9525,1.4371,1.729
27.026,0.1587,0.2327,-1.2121,1.244
27.104,0.509,0.72,0.1418,0.893
27.105,0.1546,0.0315,-0.1204,0.198
27.105,0.1514,0.0285,-0.1204,0.195
27.106,-0.5097,-0.5855,-0.5274,0.938
27.106,0.3862,0.1668,-0.6639,0.786
27.107,0.3281,0.8265,0.4434,0.994
27.108,0.3934,-0.0161,0.6864,0.791
27.108,-0.7385,-0.5563,-0.6077,1.106
27.114,-0.2892,-0.2917,-0.4737,0.627
27.209,0.6365,0.1715,-0.2223,0.696
27.212,0.4102,0.4953,1.3974,1.538
27.215,0.0332,0.5616,-1.3464,1.459
27.218,-0.4897,-0.893,-0.2522,1.049
27.221,-0.478,-0.6962,-0.8137,1.173
27.224,0.7167,0.2784,0.12,0.778
27.231,-0.1548,0.25,1.1435,1.181
27.234,-0.0662,-0.2173,-0.463,0.516
27.237,-0.0002,-0.4214,-0.4773,0.637
27.239,0.0303,-0.6277,-0.123,0.64
27.241,0.3243,-0.6707,1.7265,1.88
27.243,-0.1914,0.2219,-1.3921,1.423
27.245,-0.1951,-0.3718,0.6991,0.816
27.258,0.1377,-0.5583,-0.6763,0.888
27.262,-0.1603,-0.6502,0.3148,0.74
27.348,-0.0977,0.0518,-0.0875,0.141
27.35,0.6497,0.8569,0.3242,1.123
27.35,0.4124,0.1456,0.5863,0.732
27.351,-0.141,-0.506,0.1937,0.56
27.352,-0.596,-0.598,-0.7712,1.144
27.352,0.2413,0.4267,-0.6599,0.822
27.353,0.5088,0.3138,-0.0865,0.604
27.354,0.0908,0.0818,0.5527,0.566
27.354,-0.8324,-0.6747,-0.8611,1.375
27.437,-0.622,-1.2247,-1.1915,1.818
27.439,-0.6178,-1.2167,-1.1915,1.812
27.442,0.1864,0.2454,0.2881,0.422
27.445,0.1737,-0.5782,1.0123,1.179
27.447,0.0166,-0.4844,-1.2825,1.371
27.449,-0.8443,-0.9568,-1.1568,1.722
27.452,-0.1442,0.3551,-0.4278,0.574
27.454,1.0292,0.4574,0.6711,1.311
27.458,0.2589,0.6454,0.4484,0.827
27.46,0.4111,0.0998,0.4664,0.63
27.523,-0.693,-0.5727,-0.5045,1.031
27.525,0.3205,0.3172,0.8171,0.933
27.527,0.5779,0.9819,0.8147,1.401
27.528,0.2062,-0.0479,0.3993,0.452
27.529,-0.1029,-0.3467,0.1575,0.394
27.53,-0.1866,-0.1338,0.1683,0.285
27.531,-0.5051,-0.0378,-0.283,0.58
27.534,0.0131,0.6324,-0.0436,0.634
27.618,-0.1411,-0.1053,0.0522,0.184
27.622,0.3743,-0.4415,0.0869,0.585
27.624,-0.5513,-0.3719,-1.9793,2.088
27.633,-0.9021,0.0278,-1.0683,1.399
27.641,0.0195,0.813,-0.502,0.956
27.644,0.6024,0.6136,0.7765,1.159
27.645,-0.2486,-0.7625,0.6544,1.035
27.646,-0.2346,-0.484,-0.3284,0.63
27.648,-0.4997,-0.2655,-0.5043,0.758
27.649,0.4249,0.2464,0.3756,0.618
27.652,0.9936,0.4296,0.1876,1.099
27.654,-0.1512,-0.6951,0.3133,0.777
27.666,-0.1359,-0.3194,-0.6803,0.764
27.744,-0.343,0.2685,-0.5223,0.68
27.745,-0.2238,0.3385,0.287,0.497
27.745,0.2167,-0.0517,0.5982,0.638
27.746,-0.6412,-0.6024,-0.7737,1.172
27.746,-0.5451,-0.6295,-1.1029,1.382
27.746,-0.0089,0.115,-0.6731,0.683
27.747,0.0623,0.5777,0.4115,0.712
27.747,0.048,0.1267,0.2236,0.261
27.833,-0.5986,-0.5727,-0.12,0.837
27.843,0.4403,-0.5638,-0.072,0.719
27.845,-0.3807,-0.2603,-0.5856,0.745
27.847,0.2755,1.0004,0.1387,1.047
27.849,0.0212,0.1921,0.086,0.212
27.852,0.2803,-0.1592,1.513,1.547
27.854,0.3221,-0.1881,-0.7029,0.796
27.858,0.01,-0.1256,-0.4623,0.479
27.86,-0.0997,0.4304,-0.3785,0.582
27.862,0.4543,0.2156,-0.6694,0.837
27.865,0.3101,0.051,-0.6526,0.724
27.868,0.3779,0.223,1.2268,1.303
27.914,-0.0215,0.8129,-1.0909,1.361
27.916,-0.2342,0.2645,-0.1847,0.399
27.918,-0.2095,0.1518,-1.1064,1.136
27.919,-0.1794,-0.6965,-0.3821,0.814
27.922,-0.3971,-0.5033,-1.2033,1.363
27.924,-0.2029,0.1392,-1.2584,1.282
27.936,0.4066,0.9528,-0.7149,1.259
27.945,0.1388,0.1273,-0.6323,0.66
28.02,0.0486,-0.2204,-0.1414,0.266
28.021,-0.4879,-0.6932,-0.6514,1.069
28.022,-0.1457,-0.3263,-0.5795,0.681
28.032,0.392,0.4078,-0.139,0.583
28.036,-0.076,-0.1763,0.2656,0.328
28.037,-0.174,-0.1676,-0.2372,0.339
28.039,0.3342,-0.5559,0.7397,0.984
28.041,0.0142,0.5502,0.0824,0.557
28.042,0.2164,0.4972,-0.0864,0.549
28.043,0.1095,0.2238,-0.0086,0.249
28.095,-0.1469,-0.4271,-0.6466,0.789
28.097,0.2338,-0.5045,-0.2468,0.608
28.099,0.3313,0.7365,1.3035,1.533
28.1,0.6959,1.1546,-0.2732,1.375
28.102,0.4173,0.3247,0.2823,0.599
28.105,0.4097,0.0192,-0.6826,0.796
28.117,0.2668,-0.6674,-0.3414,0.796
28.197,-0.2574,0.0426,-0.296,0.395
28.198,0.0006,0.1522,-0.1787,0.235
28.199,-0.2125,-0.2423,-0.2445,0.404
28.199,-0.118,-0.572,-0.2601,0.639
28.2,-0.6039,-0.5309,-0.5965,1.001
28.2,0.2915,0.3697,-0.6528,0.805
28.201,0.4556,0.9954,0.2702,1.128
28.202,0.3934,0.5447,0.6245,0.917
28.202,0.0317,-0.3952,-1.0777,1.148
28.273,-0.7578,-0.5534,-0.721,1.183
28.275,0.4517,-0.0456,-0.0279,0.455
28.277,0.0561,0.2958,0.1577,0.34
28.277,-0.0223,0.5923,-1.8475,1.94
28.278,-0.3946,-0.785,-0.776,1.172
28.279,-0.8285,-0.7036,-0.43,1.169
28.28,-0.4786,0.5594,-0.6227,0.964
28.282,-0.0583,0.1373,1.4016,1.409
28.295,0.0427,-0.1031,-1.2177,1.223
28.305,-0.7584,-1.2828,0.1291,1.496
28.374,-0.5225,-0.708,-0.9447,1.291
28.374,0.2939,0.4519,0.444,0.698
28.375,0.2777,0.4504,0.7133,0.888
28.375,0.1502,0.3126,0.6906,0.773
28.376,-0.3938,-0.4221,0.0825,0.583
28.377,-0.4066,-0.672,0.225,0.817
28.377,-0.4039,-0.6681,0.225,0.812
28.383,0.7231,0.9355,0.3375,1.23
28.464,-0.0619,-0.1703,0.7577,0.779
28.468,-0.165,-0.4426,-0.7076,0.851
28.474,-0.4776,0.2486,-0.1928,0.572
28.477,-0.3427,-0.034,-1.0499,1.105
28.478,-0.0177,0.4879,-0.1473,0.51
28.479,0.1479,-0.2723,0.8571,0.911
28.482,-0.7829,-0.1157,-1.081,1.34
28.483,-0.7001,-0.8974,-0.9457,1.48
28.484,-0.8959,-0.4708,-0.693,1.227
28.486,0.0424,0.508,0.096,0.519
28.503,-0.2171,-0.7831,1.2681,1.506
28.505,-0.2946,-0.7059,-1.7821,1.939
28.581,-0.4464,-0.9979,-0.1946,1.11
28.581,-0.4212,0.0504,-0.3297,0.537
28.582,0.2301,0.5027,0.5623,0.789
28.583,0.1272,-0.414,-0.4145,0.6
28.583,-0.4827,-0.5458,-0.6035,0.946
28.584,-0.7596,-0.5817,-0.2455,0.988
28.584,-0.209,-0.0094,0.1055,0.234
28.585,0.5562,1.0233,0.2265,1.187
28.665,0.7352,0.6988,0.6539,1.207
28.668,0.0837,-0.0344,0.3595,0.371
28.671,0.7585,0.1935,0.8646,1.166
28.675,-0.4029,-0.0163,-2.382,2.416
28.678,0.0465,0.4795,-0.4762,0.677
28.68,0.3737,0.3886,-1.143,1.264
28.682,0.865,-0.0208,0.3749,0.943
28.684,-0.7338,-0.2616,0.4956,0.923
28.685,-0.3872,0.4799,-0.674,0.913
28.686,0.4971,0.4148,-0.2717,0.702
28.7,-0.0373,-0.1083,0.1749,0.209
28.703,0.6928,-0.7669,1.6712,1.965
28.784,-0.4222,-0.3711,-0.9685,1.12
28.785,0.6241,0.6502,0.2812,0.944
28.786,0.1305,0.553,-0.6082,0.832
28.786,0.5039,0.2359,0.5445,0.778
28.787,0.0581,-0.3389,0.3374,0.482
28.788,0.0222,-0.5635,-0.9951,1.144
28.788,0.3366,0.7837,0.5204,0.999
28.789,0.2724,0.7397,0.3587,0.866
28.878,0.6069,0.3872,0.0929,0.726
28.882,-0.5203,-0.4581,-0.0425,0.695
28.888,0.2876,0.0394,-0.0389,0.293
28.892,0.0191,0.5667,0.5153,0.766
28.896,0.1673,0.7093,-0.3993,0.831
28.899,0.4263,0.7809,-0.7932,1.192
28.902,0.0716,-0.0276,-0.4078,0.415
28.904,0.3477,-0.7242,0.9042,1.21
28.906,0.0853,0.278,1.1376,1.174
28.908,0.0772,0.7531,-0.2881,0.81
28.91,0.2091,0.2423,-0.014,0.32
28.911,0.4963,0.0512,0.1585,0.524
28.925,0.4982,-0.4197,0.6828,0.944
28.928,0.0246,0.3844,0.0566,0.389
28.934,0.239,1.0098,0.5294,1.165
29.007,0.2104,0.4527,-0.3265,0.597
29.01,0.1497,-0.4229,0.1871,0.486
29.014,-0.2365,-0.2592,0.1739,0.392
29.016,0.1165,0.1551,-0.1374,0.238
29.044,0.2452,0.1117,0.8562,0.898
29.048,0.8863,0.855,0.6922,1.413
29.05,-0.4335,-0.5942,0.2338,0.772
29.051,-0.5506,-0.5491,-0.4929,0.921
29.054,-0.3319,-0.1359,-0.4965,0.612
29.057,0.3496,0.0692,1.0944,1.151
29.059,-0.278,-0.3077,-0.7467,0.854
29.061,-1.3061,-0.9185,-0.8509,1.809
29.063,-0.576,-0.4729,-1.2818,1.483
29.088,-0.2298,-0.1486,0.4755,0.549
29.089,0.6111,0.0424,0.7975,1.006
29.093,-0.4182,-0.0348,0.0697,0.425
29.101,0.0117,-0.4892,-0.4355,0.655
29.114,-0.0921,-0.3781,0.029,0.39
29.191,0.7667,0.316,0.6443,1.05
29.192,0.0134,0.201,0.1726,0.265
29.193,-0.2906,-0.3604,-0.2416,0.522
29.193,-0.2754,-0.6688,-0.3841,0.819
29.194,-0.2221,-0.451,0.2672,0.569
29.195,-0.1465,0.0947,0.7568,0.777
29.195,0.304,0.5989,-0.359,0.762
29.196,-0.2971,-0.3152,0.6813,0.807
29.202,-0.4335,-0.5842,0.4275,0.844
29.276,-0.4768,-0.4594,-0.2656,0.713
29.278,-0.1529,-0.1855,-0.633,0.677
29.279,0.2582,-0.0191,0.3714,0.453
29.281,-0.0454,-0.5756,0.4611,0.739
29.282,-0.0609,-0.2953,0.0625,0.308
29.284,-0.5247,-0.6944,-0.293,0.918
29.285,-0.6055,-0.3387,-0.4163,0.809
29.287,-0.0817,-0.1763,0.405,0.449
29.301,0.8191,0.0839,-0.8531,1.186
29.303,0.3864,-0.6094,-1.0781,1.297
29.385,-0.5285,-0.472,-1.1655,1.364
29.385,-0.4449,0.9848,-0.9703,1.452
29.386,0.1892,0.8201,-0.5597,1.011
29.386,0.2361,0.358,1.4095,1.473
29.387,-0.5152,-0.1426,-1.4253,1.522
29.388,-0.7518,-0.7274,-0.6854,1.251
29.388,0.5645,0.534,-0.0999,0.783
29.388,0.4567,0.9816,0.2258,1.106
29.469,0.2925,0.1602,0.1048,0.35
29.474,-0.5604,-0.5109,-0.0436,0.76
29.477,-0.4248,-0.6019,0.0977,0.743
29.48,0.0219,0.5834,-0.3656,0.689
29.483,0.605,0.5318,0.4269,0.912
29.484,0.0145,-0.1327,0.1983,0.239
29.486,0.0069,-0.6475,-0.0352,0.649
29.488,0.1288,-0.0306,-0.3823,0.405
29.491,-0.4344,0.4139,-0.1226,0.612
29.493,-0.3285,0.7653,-0.5451,0.995
29.495,0.735,-0.0028,0.579,0.936
29.51,0.0075,-0.3677,0.6759,0.77
29.514,0.3157,0.1324,-1.2215,1.269
29.586,-0.3029,0.1614,-1.279,1.324
29.59,0.0091,0.5854,-0.0615,0.589
29.59,1.0061,0.4476,-0.1512,1.111
29.591,0.2634,-0.1102,1.5019,1.529
29.593,0.4832,0.6669,-1.1726,1.433
29.594,-0.0405,0.2568,-0.2557,0.365
29.596,0.0841,0.529,-0.5142,0.743
29.597,0.4328,-0.0103,-0.3646,0.566
29.672,-0.2192,-0.5645,-0.5886,0.844
29.677,-0.1492,-0.1778,-1.4649,1.483
29.681,-0.1814,0.1896,-1.253,1.28
29.684,-0.1821,0.1883,-1.253,1.28
29.686,0.4366,0.0682,0.2733,0.52
29.688,-0.5157,-0.532,-0.3504,0.82
29.691,0.4202,0.2184,-0.688,0.835
29.692,0.419,0.2177,-0.688,0.834
29.694,0.0873,0.2391,0.1224,0.282
29.696,0.499,0.5737,0.0805,0.765
29.71,0.6118,-0.4397,0.6132,0.971
29.714,0.1918,-0.0647,0.424,0.47
29.791,0.0298,0.6394,-1.7392,1.853
29.793,0.0498,0.8268,-0.3649,0.905
29.794,0.0573,0.2305,-0.3576,0.429
29.796,-0.2449,-0.5649,-0.3815,0.724
29.798,-0.1843,-0.8717,0.9819,1.326
29.8,-0.274,0.0457,-1.6266,1.65
29.802,0.1569,0.1418,0.8239,0.851
29.804,-0.4281,-0.265,-1.2219,1.322
29.805,-0.3296,-0.7709,0.4696,0.961
29.882,-0.3137,-0.4593,-0.4247,0.7
29.887,0.5322,0.6461,-0.4977,0.974
29.889,0.3462,1.2178,0.0075,1.266
29.895,0.3674,-0.4052,-0.0619,0.55
29.897,-0.3288,-0.7375,-0.8245,1.154
29.899,-0.1928,-0.3925,-0.7419,0.861
29.9,-0.1924,-0.3905,-0.7419,0.86
29.901,-0.025,0.5821,-0.4115,0.713
29.902,-0.0028,-0.0699,0.1128,0.133
29.903,0.0372,-0.3687,-0.062,0.376
29.916,0.465,-0.2237,0.0206,0.516
29.921,0.6724,0.1864,1.2189,1.404
30.003,0.6666,0.1872,1.2188,1.402
30.004,0.0513,-0.1288,-0.098,0.17
30.004,-0.6431,-0.622,-0.3889,0.976
30.005,-0.431,-0.4389,-0.4584,0.767
30.006,-0.139,-0.7915,1.4414,1.65
30.035,0.325,0.449,-1.1312,1.26
30.041,0.327,0.4497,-1.1312,1.26
30.045,0.3925,-0.4977,-1.0892,1.26
30.047,-0.0703,-0.7834,0.8692,1.172
30.049,0.0612,0.1007,-0.4178,0.434
30.05,-0.612,-0.1671,-0.4214,0.762
30.051,-0.4331,-0.6192,-0.2155,0.786
30.081,-0.4294,-0.612,-0.2155,0.778
30.082,-0.4231,-0.4171,-0.4334,0.735
30.082,0.7759,0.6521,0.085,1.017
30.083,0.6339,0.9213,0.1843,1.133
30.095,0.6475,0.6088,0.413,0.98
30.102,-0.2438,-0.3174,-1.767,1.812
30.171,-0.5431,-0.3922,-0.9542,1.166
30.171,0.2819,0.3696,-0.3125,0.56
30.172,0.8323,0.3823,1.0773,1.414
30.172,-0.7032,0.0478,0.1136,0.714
30.173,-0.4771,-0.7093,-1.0691,1.369
30.173,-0.3471,-0.0963,-0.7614,0.842
30.174,-0.3142,-0.1145,0.152,0.367
30.262,0.1584,-0.4708,1.8914,1.956
30.266,0.1574,-0.4678,1.8914,1.955
30.267,0.2178,-0.5795,0.9996,1.176
30.268,-0.5598,-0.6816,-0.5794,1.055
30.268,0.3536,0.642,0.5795,0.934
30.269,0.4256,0.709,0.619,1.033
30.271,0.0979,0.0675,0.5244,0.538
30.274,-0.3723,-0.6126,0.0887,0.722
30.276,-0.3435,-0.0943,0.0228,0.357
30.278,0.4182,0.5741,-0.1172,0.72
30.312,0.6217,0.6087,0.3796,0.949
30.314,0.0151,-0.0272,0.2431,0.245
30.316,-0.4244,-0.2393,-0.1927,0.524
30.318,-0.161,-0.0445,-1.1923,1.204
30.33,-0.3451,0.1313,-1.051,1.114
30.415,-0.2098,0.6778,0.4622,0.847
30.422,0.7031,0.2621,0.4562,0.878
30.424,-0.534,0.0474,-1.0066,1.141
30.428,-0.7699,-0.24,-1.2149,1.458
30.43,-0.2611,0.0568,-0.5983,0.655
30.434,0.2492,0.6841,0.1177,0.737
30.435,0.1707,-0.6033,0.8276,1.038
30.438,-0.3976,-0.4704,-0.9561,1.137
30.44,-0.7944,-0.7241,0.04,1.076
30.442,-0.3276,0.2085,-0.2939,0.487
30.443,0.6644,1.0392,0.9237,1.541
30.443,0.5549,-0.0514,0.7297,0.918
30.453,-0.3447,-0.5242,-0.6182,0.881
30.462,-0.5493,-0.4134,-0.2974,0.749
30.474,-0.1657,0.2413,-0.0507,0.297
30.494,0.4884,0.6924,0.0631,0.85
30.498,0.4879,0.6909,0.0631,0.848
30.503,-0.3456,-0.2409,-0.3212,0.53
30.516,0.2919,-0.4594,1.3607,1.466
30.522,-0.8144,-0.0699,-1.5446,1.748
30.538,-0.2042,0.2946,-0.1464,0.387
30.542,-0.0499,0.0849,-0.2349,0.255
30.557,-0.1135,-0.5968,0.6282,0.874
30.563,0.2105,-0.4654,0.6378,0.817
30.573,-0.2736,0.6662,-0.1356,0.733
30.589,0.4245,0.339,-0.4084,0.68
30.596,0.2836,0.1251,-0.0624,0.316
30.602,1.1515,-0.2848,0.3889,1.248
30.613,-0.0584,-0.3999,0.4762,0.625
30.621,0.3452,0.6768,-0.4326,0.874
30.634,0.1301,0.9458,0.0893,0.959
30.648,0.5101,0.4195,0.1144,0.67
30.655,0.0604,-0.7263,0.4364,0.849
30.663,-0.0539,0.2512,-1.5341,1.555
30.674,-0.0072,0.4653,-0.3275,0.569
30.682,0.2988,0.3148,0.143,0.457
30.693,-0.1178,-0.2074,-0.4461,0.506
30.701,-0.2802,-0.5073,-0.2916,0.649
30.714,-0.2802,-0.5075,-0.2916,0.649
30.721,0.603,0.5434,0.7079,1.077
30.735,-0.1686,-0.1091,-0.4042,0.451
30.743,0.1951,0.1628,-0.725,0.768
30.753,-0.0843,-0.5497,-0.3958,0.683
30.762,-0.2343,-0.5786,0.6935,0.933
30.773,0.5657,0.1029,0.1081,0.585
30.782,-0.0185,0.4304,-0.0703,0.436
30.793,0.1136,-0.0769,-0.2031,0.245
30.802,0.2229,0.0971,-0.3779,0.449
30.813,0.6078,-0.0392,-0.0535,0.611
30.822,0.3594,0.7687,1.3937,1.632
30.833,0.2284,1.2307,-0.3027,1.288
30.842,0.2255,1.2219,-0.3027,1.279
30.853,0.3712,-0.4024,-0.2572,0.605
30.863,0.0436,0.3259,0.0193,0.329
30.873,0.3466,0.5433,0.2359,0.686
30.881,0.602,0.646,0.6956,1.124
30.894,0.7195,0.4482,0.0552,0.85
30.902,0.2187,-0.5076,0.2407,0.603
30.914,-0.4105,-0.0034,-0.3303,0.527
30.922,-0.2274,-0.1301,-0.4764,0.544
30.934,0.1164,-0.2409,0.2431,0.361
30.941,0.1755,-0.1087,0.2443,0.32
30.955,0.1734,-0.109,0.2443,0.319
30.962,-0.7597,-0.3373,-1.0187,1.315
30.973,0.393,0.3144,1.1277,1.235
30.993,0.9598,0.6079,0.7015,1.335
30.995,0.5729,0.4648,-0.4741,0.877
31.001,-0.0793,-0.7472,-0.7051,1.03
31.013,-0.384,-0.5477,-0.3675,0.763
31.021,0.8212,0.4951,0.6416,1.154
31.034,-0.0491,0.7832,0.9899,1.263
31.042,0.0196,0.665,-0.8608,1.088
31.053,-0.6123,-0.9663,-0.1653,1.156
31.061,-0.3316,-0.7442,-0.1652,0.831
31.073,-0.2632,-0.3248,0.3818,0.566
31.082,0.1853,0.3515,-0.054,0.401
31.093,-0.4351,-0.5161,-0.2982,0.738
31.101,-0.5165,-0.6004,-0.5723,0.977
31.114,-0.0191,0.2679,0.0872,0.282
31.126,-0.1682,-0.1341,-0.2958,0.366
31.134,0.4764,0.4551,0.0872,0.665
31.143,0.477,0.4555,0.0872,0.665
31.153,0.0095,-0.323,0.8175,0.879
31.162,-0.452,-0.2771,0.0908,0.538
31.173,0.0586,0.4591,0.0178,0.463
31.181,0.6055,0.037,0.6283,0.873
31.194,0.6051,0.0373,0.6283,0.873
31.201,0.0272,-0.3137,-1.1686,1.21
31.214,-0.6847,-0.3257,-0.6838,1.021
31.222,-0.6947,0.1085,-0.266,0.752
31.233,-0.0734,0.8954,-0.5437,1.05
31.241,0.0153,-0.3659,1.0832,1.143
31.256,-0.6911,-0.6842,-1.536,1.818
31.267,-0.6026,-1.1856,0.3051,1.365
31.274,-0.0805,0.4864,-0.3568,0.609
31.281,0.0594,0.605,0.8008,1.005
31.294,-0.3743,-0.728,-0.3292,0.882
31.301,-0.5247,-0.4298,-0.1987,0.707
31.313,-0.733,-0.474,0.1772,0.891
31.321,-0.3446,0.3113,0.0421,0.466
31.333,0.2957,0.2219,0.1667,0.405
31.342,0.6789,0.342,0.3511,0.837
31.353,-0.1199,-0.5127,0.6863,0.865
31.361,-0.1498,0.2022,-0.8316,0.869
31.373,0.0969,1.127,0.545,1.256
31.382,-0.1188,0.8838,0.7689,1.177
31.393,1.1635,0.3929,-0.0271,1.228
31.402,0.3209,-0.4952,0.7618,0.964
31.413,-0.3281,0.1679,-1.5822,1.625
31.423,-0.004,0.2991,-0.7705,0.827
31.433,-0.0549,0.535,-0.2054,0.576
31.441,-0.3308,-0.1193,-0.7956,0.87
31.453,-0.1257,-1.1031,1.455,1.83
31.462,-0.1136,0.179,-2.7803,2.788
31.474,-0.4915,0.1083,-0.7118,0.872
31.482,0.0009,0.5748,-0.738,0.935
31.493,0.0868,-0.3424,-0.2292,0.421
31.501,-0.1538,-0.6033,-0.435,0.76
31.513,-0.206,-0.1806,-1.2802,1.309
31.521,0.2568,0.2736,-0.2566,0.455
31.533,0.3602,0.7219,0.4197,0.909
31.541,0.6229,0.4122,0.4114,0.853
31.553,0.065,-0.2511,0.3958,0.473
31.561,0.0101,0.3156,-0.5056,0.596
31.573,-0.0047,0.8869,0.5442,1.041
31.586,0.4102,0.3548,-0.3093,0.624
31.593,0.2311,-0.1686,-0.3392,0.444
31.601,0.1693,-0.582,-0.581,0.84
31.613,0.6372,-0.4574,1.1261,1.372
31.621,-0.5359,0.3752,-0.9402,1.145
31.633,-0.2189,0.7601,-0.0999,0.797
31.641,0.3376,0.5675,0.2151,0.694
31.653,-0.594,-0.6981,0.1133,0.924
31.661,0.1055,-1.1342,1.4397,1.836
31.673,-0.1386,0.4341,-1.2382,1.319
31.681,-0.0367,0.1486,0.7477,0.763
31.693,0.234,0.157,-0.5523,0.62
31.701,-0.5885,-0.6208,0.397,0.943
31.713,-0.2454,-0.1207,-0.3081,0.412
31.721,0.6341,0.4545,0.318,0.842
31.733,0.5294,1.0023,0.1732,1.147
31.741,0.2597,-0.4136,0.1229,0.504
31.753,-0.2536,-0.7237,-0.2733,0.814
31.762,-0.147,-0.0776,-0.6456,0.667
31.773,0.3707,0.3319,0.1492,0.519
31.784,0.3695,0.3319,0.1492,0.519
31.793,0.0083,-0.4558,-0.4769,0.66
31.801,-0.4784,-0.81,-0.6984,1.172
31.813,-0.3533,-0.5036,0.0809,0.62
31.822,0.8887,0.1827,1.1667,1.478
31.834,-0.2582,0.3227,-0.1897,0.455
31.842,-0.626,-0.5158,-0.7045,1.074
31.853,0.0456,-0.6532,-0.9115,1.122
31.862,-0.4669,-0.604,0.1826,0.785
31.873,0.4995,0.061,1.3007,1.395
31.881,-0.0217,0.1711,-0.701,0.722
31.893,-0.3921,-0.5884,0.0101,0.707
31.901,0.2609,-0.2484,-0.762,0.843
31.915,0.3153,-0.0511,0.3884,0.503
31.922,0.2434,0.2762,1.0036,1.069
31.933,-0.2097,0.0316,0.0962,0.233
31.941,-0.2554,-0.4406,0.7462,0.903
31.953,0.089,-0.5367,0.4696,0.719
31.962,-0.0312,-0.2303,0.0901,0.249
31.992,-0.1216,0.0621,-0.6054,0.621
32.012,0.0369,0.4983,0.2672,0.567
32.018,-0.0862,-0.7065,1.1639,1.364
32.02,-0.8304,-0.9372,-1.9821,2.344
32.022,-1.2308,-0.5562,-1.3153,1.885
32.024,-0.5742,0.2224,-0.5227,0.808
32.033,0.2387,0.2358,0.2376,0.411
32.042,0.111,-0.3018,1.005,1.055
32.053,-0.1165,-0.4524,-0.4446,0.645
32.061,-0.6906,-0.5701,-0.5762,1.065
32.073,0.6061,0.6847,-0.2708,0.954
32.082,1.4678,0.4052,1.3801,2.055
32.093,0.1913,-0.0613,0.9179,0.94
32.102,-0.2352,-0.3821,-0.2709,0.524
32.113,-0.5959,-0.2769,-0.7569,1.002
32.123,0.6902,0.8156,0.0272,1.069
32.133,0.662,0.1665,0.6162,0.92
32.142,-0.4465,0.1508,-0.6912,0.837
32.153,-0.2207,-0.4089,-0.7427,0.876
32.162,-0.6474,-0.5728,-0.198,0.887
32.173,-0.0775,0.5458,-0.4841,0.734
32.182,0.4884,0.6169,0.5969,0.988
32.194,0.012,-0.589,-0.1117,0.6
32.202,0.1675,-0.5506,0.1684,0.6
32.214,-0.088,0.1081,-1.3053,1.313
32.222,-0.5886,-0.0012,-0.8157,1.006
32.233,-0.2305,0.1935,-0.1919,0.357
32.241,0.2729,0.2655,-0.0614,0.386
32.253,0.0197,-0.6124,0.5958,0.855
32.262,-0.2958,-0.1422,-1.3196,1.36
32.273,-0.2742,0.3488,-0.776,0.894
32.281,0.0785,1.0005,-0.2684,1.039
32.293,0.7868,0.5835,0.0177,0.98
32.302,-0.0476,-0.2358,0.2559,0.351
32.313,-0.4211,-0.1069,-1.0298,1.118
32.321,-0.1246,0.3468,0.2499,0.445
32.333,0.7747,0.9123,0.4858,1.292
32.342,0.7094,0.6059,0.0369,0.934
32.353,-0.078,-0.2951,-0.5498,0.629
32.363,0.1229,0.0051,-0.7401,0.75
32.375,0.6794,0.9097,0.8628,1.426
32.382,0.6201,0.5885,0.0487,0.856
32.394,-0.3075,-0.5756,0.0833,0.658
32.402,-0.3422,-0.6383,-0.7116,1.015
32.413,0.2849,-0.2367,0.2628,0.454
32.421,0.1429,0.4924,0.2712,0.58
32.433,-0.0962,0.5581,0.6374,0.853
32.442,0.2697,0.0621,-0.6901,0.744
32.453,0.3549,-0.442,1.2958,1.414
32.462,0.8478,0.236,0.0125,0.88
32.473,0.7973,0.5044,-0.3156,0.995
32.482,0.3617,0.852,-0.1433,0.937
32.493,0.4541,-0.0023,-0.4977,0.674
32.502,0.5408,-0.6693,0.4707,0.981
32.514,0.203,-0.1441,1.0943,1.122
32.522,0.6135,0.7077,-0.4537,1.041
32.533,0.2726,0.5596,0.2969,0.69
32.542,0.3178,0.046,0.3639,0.485
32.554,-0.2934,-0.2597,0.5483,0.674
32.562,-0.2132,-0.2218,-0.6333,0.704
32.574,0.2739,0.4677,-0.4609,0.711
32.581,0.436,0.3617,0.1077,0.577
32.593,-0.067,-0.6125,0.1125,0.626
32.602,-0.6146,-0.9455,-0.3472,1.18
32.613,-0.541,-0.5821,-0.9541,1.242
32.623,0.637,0.7126,-0.1844,0.973
32.634,-0.1862,0.2871,-0.0731,0.35
32.641,-0.409,-0.1714,-0.2024,0.487
32.653,0.2525,-0.2178,-0.3461,0.481
32.661,0.4979,-0.6876,1.5454,1.763
32.673,-0.126,-0.055,-0.5448,0.562
32.681,0.1426,0.5221,-0.2648,0.602
32.694,-0.2558,-0.3602,-0.0385,0.443
32.703,-0.5478,-0.4993,-0.2803,0.792
32.713,-0.7247,-0.6116,-0.43,1.041
32.722,-0.2834,0.0249,1.2088,1.242
32.734,0.243,0.4014,-1.1064,1.202
32.742,-0.3671,-0.4198,0.7012,0.896
32.753,-0.5011,-0.4427,-0.4708,0.818
32.762,-0.4302,-0.4444,0.4307,0.754
32.773,-0.0438,0.2826,-0.2697,0.393
32.782,0.3641,0.6408,0.4618,0.87
32.793,0.5651,0.3799,0.0799,0.686
32.802,-0.2074,-0.6223,0.3612,0.749
32.814,-0.0867,0.1946,-0.4205,0.471
32.822,0.4428,0.5404,0.3756,0.793
32.833,-0.1562,-0.0388,0.8221,0.838
32.842,-0.1048,0.2239,-0.4971,0.555
32.853,-0.058,-0.5769,-0.102,0.589
32.862,-0.7461,-0.5383,-0.6491,1.126
32.874,0.7254,0.4214,1.052,1.346
32.882,0.3327,0.017,0.7767,0.845
32.893,0.4141,0.6905,-0.5773,0.991
32.902,-0.4281,-0.529,-0.4564,0.819
32.914,-0.3673,-0.177,-0.5749,0.705
32.922,-0.1101,0.4529,-0.5892,0.751
32.934,0.6504,0.2451,1.9426,2.063
32.942,0.0028,0.1132,-1.9132,1.917
32.954,-0.9528,-0.9988,-0.9113,1.654
32.962,-0.4842,-0.8271,-0.2121,0.982
32.974,-0.0659,0.1569,-0.1283,0.213
32.986,0.1526,0.0675,-0.2564,0.306
32.993,-0.4653,-0.322,0.0967,0.574
33.002,-0.4957,-0.6142,-0.2444,0.826
33.013,-0.514,-0.3053,-0.3354,0.685
33.022,0.1874,0.4953,-0.1235,0.544
33.033,0.5918,0.5653,0.4751,0.946
33.041,0.0404,0.0536,0.3123,0.319
33.055,0.5088,-0.2758,0.0202,0.579
33.062,-0.149,-0.0538,-0.8585,0.873
33.073,-0.2714,0.1453,-0.6813,0.748
33.081,0.5286,0.568,-0.4407,0.892
33.094,-0.0194,-0.2917,0.5756,0.646
33.102,-0.7622,0.0108,-1.9179,2.064
33.114,-0.7046,-0.5318,-1.2571,1.536
33.122,-0.5269,0.2186,-0.7363,0.931
33.133,-0.326,0.3013,-0.0958,0.454
33.142,-0.1255,-1.0804,0.6693,1.277
33.153,-0.4518,-0.6035,-1.9847,2.123
33.162,-0.69,-0.8508,0.1594,1.107
33.173,-0.0586,-0.0259,-0.293,0.3
33.182,0.1155,0.8629,1.0994,1.402
33.193,-0.1791,-0.5652,0.1705,0.617
33.202,-0.4762,-0.5628,-0.5489,0.919
33.213,0.0005,-0.3262,-0.0903,0.338
33.222,-0.4297,-0.0863,-0.2866,0.524
33.234,0.6904,0.8249,0.2414,1.102
33.242,0.3765,0.1202,0.0403,0.397
33.253,0.0384,0.2406,0.4557,0.517
33.262,-0.2903,-0.0016,0.433,0.521
33.274,0.0765,0.6588,-0.5199,0.843
33.282,0.7341,0.8734,0.2582,1.17
33.294,-0.1205,-0.053,-0.0339,0.136
33.302,0.5198,-0.7141,1.265,1.543
33.313,-0.5596,-0.2797,-0.3392,0.712
33.322,-0.5815,0.7834,-1.0121,1.406
33.333,0.0825,0.4497,-0.089,0.466
33.342,-0.4338,-0.1841,-0.3822,0.607
33.354,0.1046,-0.9586,0.8245,1.269
33.361,-0.2906,-0.3822,-1.6583,1.726
33.374,0.3013,0.2953,0.2128,0.473
33.382,0.3677,0.7016,-0.3797,0.878
33.393,0.7104,0.3238,-0.3007,0.837
33.402,0.276,-0.491,0.5217,0.768
33.419,0.0727,-0.0385,-1.0191,1.022
33.423,0.4874,0.9077,0.6365,1.211
33.434,0.7218,0.709,0.8352,1.312
33.443,0.4739,-0.0857,0.1288,0.499
33.456,-0.2548,-0.308,-0.695,0.802
33.463,0.1775,0.3869,-0.8004,0.907
33.475,0.1766,0.4358,1.1425,1.235
33.488,-0.0505,0.5368,-1.6588,1.744
33.505,-0.2924,-0.5383,-0.8124,1.018
33.513,-0.472,-0.5882,-0.6257,0.98
33.521,0.8239,-0.2136,0.836,1.193
33.529,-0.1777,0.4228,0.7006,0.837
33.54,0.2047,0.9492,0.3307,1.026
33.555,0.1804,0.6853,-0.1876,0.733
33.576,0.4582,0.0216,-0.7418,0.872
33.579,0.8527,-0.7,1.3172,1.718
33.587,0.1842,0.1493,0.3451,0.419
33.59,0.6621,0.9013,-0.4224,1.195
33.596,0.0295,-0.0329,-0.5397,0.541
33.604,0.2166,-0.5501,-0.1375,0.607
33.617,0.278,-0.1161,0.1259,0.326
33.624,0.4332,0.8553,-0.5817,1.121
33.634,0.6259,-0.1456,0.5735,0.861
33.642,-0.1874,-0.3233,0.4442,0.58
33.654,-0.584,-0.6269,-0.8368,1.198
33.662,-0.5472,-0.356,-0.5519,0.855
33.674,0.4491,0.0973,-0.1748,0.492
33.682,0.0277,0.3798,0.6392,0.744
33.694,-0.1587,-0.081,-0.6585,0.682
33.703,-0.4762,-0.9032,-1.1721,1.554
33.715,-0.3889,-0.1879,0.3231,0.539
33.723,0.334,0.4343,0.2967,0.623
33.734,0.8673,0.2113,0.6223,1.088
33.744,-0.6847,-0.5844,-0.9363,1.299
33.754,-0.8031,-0.9249,-1.1123,1.655
33.767,-0.3337,-0.4555,-0.339,0.659
33.774,1.0454,0.4381,0.7408,1.354
33.782,0.2534,0.5959,0.5552,0.853
33.794,-0.0752,-0.0125,0.603,0.608
33.802,0.3671,-0.3971,-0.3546,0.647
33.815,0.1231,0.2246,1.0723,1.102
33.822,0.2736,0.7093,0.6605,1.007
33.836,0.3274,0.3928,0.3935,0.645
33.843,-0.3059,-0.5491,0.4462,0.771
33.857,-0.359,-0.5243,-0.1703,0.658
33.865,-0.5703,-0.4704,-0.3918,0.837
33.884,-0.3105,-0.0211,-0.5845,0.662
33.887,0.1311,0.1844,0.2367,0.327
33.896,0.0604,-0.5269,0.2319,0.579
33.904,-0.3194,-0.8932,-0.6887,1.172
33.914,-0.7719,-0.5662,-0.7773,1.233
33.922,-0.2894,0.3308,-1.2562,1.331
33.934,0.2429,0.4651,0.6867,0.864
33.943,0.4921,-0.0876,0.3839,0.63
33.954,0.1645,-0.5154,-0.1919,0.574
33.963,-0.5788,-0.5589,-1.1987,1.444
33.974,0.2163,0.0634,-0.4613,0.513
34.009,0.9201,0.4988,0.7801,1.305
34.011,0.1375,-0.2443,0.1193,0.305
34.013,-0.1933,-0.1335,-0.6924,0.731
34.016,-0.8641,-0.5726,-0.4853,1.145
34.023,-0.0774,0.7441,-0.1178,0.757
34.035,0.2895,0.2099,0.3072,0.471
34.044,-0.2915,-0.6481,-0.7942,1.066
34.055,-0.1934,-0.6347,-0.2686,0.716
34.063,-0.3796,-0.5377,-0.4554,0.8
34.076,0.2663,0.6422,0.4736,0.841
34.083,0.3305,0.3519,0.1887,0.518
34.094,0.0181,-0.3962,0.215,0.451
34.107,-0.2262,-0.5567,0.0642,0.604
34.114,-0.3979,-0.5168,-0.5727,0.868
34.122,-0.4246,0.8848,-0.5739,1.137
34.134,-0.0784,0.7979,0.5251,0.958
34.142,0.4364,0.061,1.0686,1.156
34.154,0.073,-0.363,-0.7462,0.833
34.162,0.011,-0.1693,-0.8491,0.866
34.175,-0.1626,0.4485,-0.1931,0.515
34.183,-0.1378,0.9804,0.0536,0.992
34.195,0.1613,0.3541,-0.4815,0.619
34.203,-0.0661,-0.7152,1.556,1.714
34.214,-0.4227,0.0366,-1.6403,1.694
34.223,-0.3457,0.5091,-0.1582,0.635
34.237,-0.142,0.4842,-0.5149,0.721
34.253,0.3149,0.0367,0.3914,0.504
34.257,-0.4145,-0.0985,-0.4741,0.637
34.264,-0.0932,0.2626,-1.2007,1.233
34.274,0.0351,0.5182,-0.8966,1.036
34.281,0.2391,0.4709,-0.2058,0.567
34.293,0.4812,0.3306,-0.0968,0.592
34.302,-0.2575,-0.5052,-0.4655,0.734
34.313,-0.1451,-0.4156,-0.0525,0.443
34.322,-0.0023,0.7439,0.09,0.749
34.334,0.5296,0.4,1.2812,1.443
34.342,0.618,0.0431,0.788,1.002
34.354,0.4088,-0.481,1.4966,1.624
34.362,0.3175,0.1333,0.2348,0.417
34.379,0.3761,0.7188,-0.7648,1.115
34.389,-0.131,0.7407,-0.444,0.873
34.397,-0.0975,-0.1568,-0.7456,0.768
34.406,0.1808,-0.522,-0.5552,0.783
34.416,0.8604,0.0716,1.9826,2.162
34.43,0.0252,0.5755,-1.7656,1.857
34.443,-0.0375,0.6606,0.1018,0.669
34.445,0.2781,-0.2495,-0.6511,0.751
34.456,-0.2324,-0.7405,0.5245,0.937
34.463,-0.4031,-0.3735,-0.7085,0.897
34.475,0.466,0.597,0.3162,0.821
34.482,0.3356,0.4908,0.0816,0.6
34.494,-0.3208,-0.7248,-0.4057,0.89
